TIME,Mills,Ax,Ay,Az,Gx,Gy,Gz,Lat,Lon,Speed,Class
19-02-2019 11:27:43,1550555863216,0.31184387,5.5896454,7.9346466,-0.0052337646,-0.025909424,-0.00970459,10.62099394,76.14430236,0.0,0
19-02-2019 11:27:43,1550555863250,0.23762512,5.3526154,8.485321,0.0064849854000000005,-0.00033569336000000005,-0.010772705,10.62099394,76.14430236,0.0,0
19-02-2019 11:27:43,1550555863271,0.25439453,5.3214874000000005,8.703186,-0.007369995,-0.0024719238,0.0062713623,10.62099394,76.14430236,0.0,0
19-02-2019 11:27:43,1550555863293,0.034118652,5.2544556,8.221954,0.008621216,-0.003540039,-0.0054473877,10.62099394,76.14430236,0.0,0
19-02-2019 11:27:43,1550555863328,0.23522949,5.2233276,8.854019000000001,-0.0158844,-0.01524353,-0.0043792725,10.62099394,76.14430236,0.0,0
19-02-2019 11:27:43,1550555863355,0.06524658,5.240082,8.293777,0.01927185,-0.014190673999999999,-0.002243042,10.62099394,76.14430236,0.0,0
19-02-2019 11:27:43,1550555863386,0.24481201,5.283188,8.576294,-0.0009765625,-0.020584106,0.0020141601999999997,10.62099394,76.14430236,0.0,0
19-02-2019 11:27:43,1550555863411,0.31663513,5.211364700000001,8.70079,0.011810303000000001,-0.016311646000000003,-0.002243042,10.62099394,76.14430236,0.0,0
19-02-2019 11:27:43,1550555863452,0.031723022000000003,5.347824,8.181258999999999,0.01927185,-0.010986328,-0.0011749268,10.62099394,76.14430236,0.0,0
19-02-2019 11:27:43,1550555863469,0.42677307,5.276001,8.71756,-0.00630188,-0.033355712999999995,0.012664795,10.62099394,76.14430236,0.0,0
19-02-2019 11:27:43,1550555863508,0.24960327,5.323883,8.2052,0.01927185,-0.008865356,0.008407593,10.62099394,76.14430236,0.0,0
19-02-2019 11:27:43,1550555863534,0.7236481,5.498657,8.964157,-0.0158844,-0.005661010699999999,0.02545166,10.62099394,76.14430236,0.0,0
19-02-2019 11:27:43,1550555863568,0.7835083,5.876938,7.7287445,0.04270935,-0.028030396000000003,0.0030822754,10.62099394,76.14430236,0.0,0
19-02-2019 11:27:43,1550555863590,0.48423767,4.639145,9.624953999999999,-0.016952515,0.022033691,0.02545166,10.62099394,76.14430236,0.0,0
19-02-2019 11:27:43,1550555863635,0.15861511,5.544159,8.308150999999999,0.06826782,-0.006729125999999999,0.0020141601999999997,10.62099394,76.14430236,0.0,0
19-02-2019 11:27:43,1550555863650,0.3932495,4.964752,9.189209,0.009674071999999999,-0.025909424,-0.012893677,10.62099394,76.14430236,0.0,0
19-02-2019 11:27:43,1550555863689,0.20172119,5.592041,7.716781599999999,0.065078735,-0.009918213,-0.045928955,10.62099394,76.14430236,0.0,0
19-02-2019 11:27:43,1550555863709,0.52493286,5.419647,8.842056,-0.035064697,-0.032287598,-0.059768677,10.62099394,76.14430236,0.0,0
19-02-2019 11:27:43,1550555863753,0.30467224,5.5225983,7.9873199999999995,0.022460938,-0.031234741,-0.1439209,10.62099394,76.14430236,0.0,0
19-02-2019 11:27:43,1550555863770,0.7116852,5.4292297,8.423065,-0.028671265,-0.051467896,-0.18440247,10.62099394,76.14430236,0.0,0
19-02-2019 11:27:43,1550555863809,0.53689575,5.5633087,8.2339325,0.008621216,-0.063186646,-0.2621765,10.62099394,76.14430236,0.0,0
19-02-2019 11:27:43,1550555863833,0.1083374,5.1443176,8.727127000000001,-0.0020446776999999998,-0.047210693,-0.25257874,10.62099394,76.14430236,0.0,0
19-02-2019 11:27:43,1550555863872,0.14665222,5.4962615999999995,8.341660000000001,0.023529052999999998,-0.06211853,-0.26750183,10.62099394,76.14430236,0.0,0
19-02-2019 11:27:43,1550555863893,0.28790283,5.414871,8.545166,-0.0009765625,-0.06425476,-0.28240967,10.62099394,76.14430236,0.0,0
19-02-2019 11:27:43,1550555863935,0.058059692,5.505844000000001,7.9250793,0.013946533,-0.056793212999999995,-0.28987122,10.62099394,76.14430236,0.0,0
19-02-2019 11:27:43,1550555863954,0.24720764,5.4316254,8.219559,-0.03186035,-0.07064819,-0.30158997,10.62099394,76.14430236,0.0,0
19-02-2019 11:27:43,1550555863992,0.19213867,5.3047333,8.411102,-0.00630188,-0.06744385,-0.33674622,10.62099394,76.14430236,0.0,0
19-02-2019 11:27:44,1550555864019,0.12988281,5.6063995,7.711990400000001,-0.0020446776999999998,-0.072769165,-0.34739685,10.62099394,76.14430236,0.0,0
19-02-2019 11:27:44,1550555864052,0.055664062,5.0724945,8.741501,-0.044647217,-0.063186646,-0.3399353,10.62099394,76.14430236,0.0,0
19-02-2019 11:27:44,1550555864074,-0.16938782,5.276001,8.571503,0.023529052999999998,-0.053604125999999995,-0.3111725,10.62099394,76.14430236,0.0,0
19-02-2019 11:27:44,1550555864118,-0.047286987,5.6207733,8.356033,0.01499939,-0.041885376,-0.27282715,10.62099394,76.14430236,0.0,0
19-02-2019 11:27:44,1550555864135,-0.22445679,4.9958800000000005,9.148514,0.033111572,-0.03656006,-0.2568512,10.62099394,76.14430236,0.0,0
19-02-2019 11:27:44,1550555864173,-0.26994324,5.410080000000001,8.444611,0.049087524,-0.032287598,-0.22062683,10.62099394,76.14430236,0.0,0
19-02-2019 11:27:44,1550555864197,-0.37289429999999996,5.474716,8.030426,0.0032806396000000003,-0.032287598,-0.20144653,10.62099394,76.14430236,0.0,0
19-02-2019 11:27:44,1550555864235,-0.28909302,5.1299589999999995,8.865997,-0.035064697,-0.022705077999999997,-0.15563965,10.62099394,76.14430236,0.0,0
19-02-2019 11:27:44,1550555864255,-0.56204224,6.317474400000001,7.2929993,0.035247803,-0.01737976,-0.13114929,10.62099394,76.14430236,0.0,0
19-02-2019 11:27:44,1550555864293,-0.581192,5.6063995,8.008865,-0.046783447,-0.005661010699999999,-0.076812744,10.62099394,76.14430236,0.0,0
19-02-2019 11:27:44,1550555864326,-0.38008118,6.652664,7.4797516,0.016067505,-0.012054443,-0.05657959,10.62099394,76.14430236,0.0,0
19-02-2019 11:27:44,1550555864363,-0.37289429999999996,5.9487762,8.042389,-0.02760315,-0.007797241,-0.060836792,10.62099394,76.14430236,0.0,0
19-02-2019 11:27:44,1550555864376,-0.22685242,6.868149000000001,8.123795,-0.0052337646,-0.022705077999999997,-0.06616211,10.62099394,76.14430236,0.0,0
19-02-2019 11:27:44,1550555864415,-0.3537445,6.224106,7.4438477,0.027786255,-0.019515991,-0.12049866,10.62099394,76.14430236,0.0,0
19-02-2019 11:27:44,1550555864435,-0.23641968,6.997436500000001,6.6681213,0.02671814,-0.057861328,-0.17695618,10.62099394,76.14430236,0.0,0
19-02-2019 11:27:44,1550555864473,-0.32261658,6.24086,7.053589,-0.0009765625,-0.051467896,-0.25578308,10.62099394,76.14430236,0.0,0
19-02-2019 11:27:44,1550555864499,-0.32980347,6.769989,6.361664,0.043762207000000004,-0.084487915,-0.31010437,10.62099394,76.14430236,0.0,0
19-02-2019 11:27:44,1550555864534,-0.47824097,5.805114700000001,7.656921400000001,-0.032928467,-0.09194946,-0.40385437,10.62099394,76.14430236,0.0,0
19-02-2019 11:27:44,1550555864557,-0.3944397,6.513808999999999,6.598694,0.03843689,-0.11857605,-0.41876220000000003,10.62099394,76.14430236,0.0,0
19-02-2019 11:27:44,1550555864600,-0.61231995,5.7093506,8.724731,-0.0627594,-0.11112976,-0.44433594,10.62099394,76.14430236,0.0,0
19-02-2019 11:27:44,1550555864621,-0.9929962,6.9136353,6.665725699999999,0.08424377400000001,-0.11325073,-0.44219970000000003,10.62099394,76.14430236,0.0,0
19-02-2019 11:27:44,1550555864656,-0.6434326,6.37973,8.226746,-0.020141601999999998,-0.14201355,-0.4091797,10.62099394,76.14430236,0.0,0
19-02-2019 11:27:44,1550555864677,-0.87327576,6.372543299999999,7.360046400000001,0.09916687,-0.11752319,-0.3857422,10.62099394,76.14430236,0.0,0
19-02-2019 11:27:44,1550555864719,-0.854126,6.968704,7.721572999999999,0.07252502400000001,-0.13775635,-0.3164978,10.62099394,76.14430236,0.0,0
19-02-2019 11:27:44,1550555864739,-0.57640076,6.054123000000001,7.886764500000001,0.11193848,-0.12922668,-0.28240967,10.62099394,76.14430236,0.0,0
19-02-2019 11:27:44,1550555864777,-0.93792725,7.107558999999999,6.237167400000001,0.13111877,-0.12071228,-0.21104431,10.62099394,76.14430236,0.0,0
19-02-2019 11:27:44,1550555864811,-0.8756714,6.911239599999999,8.782196,0.011810303000000001,-0.11752319,-0.14924622,10.62099394,76.14430236,0.0,0
19-02-2019 11:27:44,1550555864842,-0.68414307,7.1746063,6.136612,0.1407013,-0.11538696,-0.040603638,10.62099394,76.14430236,0.0,0
19-02-2019 11:27:44,1550555864864,-1.2707214,6.8466034,6.371231,-0.021209717000000003,-0.08555603,0.05847168,10.62099394,76.14430236,0.0,0
19-02-2019 11:27:44,1550555864896,-1.20607,6.0062256,9.318497,-0.058502197,-0.05999756,0.22465515,10.62099394,76.14430236,0.0,0
19-02-2019 11:27:44,1550555864922,-1.2108611999999999,8.141861,4.9730225,0.07252502400000001,-0.056793212999999995,0.2821808,10.62099394,76.14430236,0.0,0
19-02-2019 11:27:44,1550555864959,-0.46148682,6.87294,5.6960754,-0.057434082000000004,-0.04827881,0.41853333,10.62099394,76.14430236,0.0,0
19-02-2019 11:27:44,1550555864988,-1.3377533000000001,6.31987,9.447784,0.00541687,0.004989624000000001,0.49417114,10.62099394,76.14430236,0.0,0
19-02-2019 11:27:45,1550555865029,-0.6218872,6.9303894,8.794174,0.029922485,-0.018447876000000002,0.53570557,10.62099394,76.14430236,0.0,0
19-02-2019 11:27:45,1550555865042,-0.11911011,6.087631,7.276244999999999,0.09170532,0.027359009,0.62306213,10.62099394,76.14430236,0.0,0
19-02-2019 11:27:45,1550555865082,-0.9618683000000001,6.0253906,11.516373,-0.1096344,0.10832214,0.73172,10.62099394,76.14430236,0.0,0
19-02-2019 11:27:45,1550555865114,-0.23402405,7.5193634000000005,3.7232513,0.11088562,0.05718994,0.7082825,10.62099394,76.14430236,0.0,0
19-02-2019 11:27:45,1550555865138,0.383667,6.9998320000000005,6.8428955,-0.15863037,0.16584778,0.938385,10.62099394,76.14430236,0.0,0
19-02-2019 11:27:45,1550555865160,-0.6889343000000001,6.501831,9.823669,-0.073410034,0.14134216,0.7871094,10.62099394,76.14430236,0.0,0
19-02-2019 11:27:45,1550555865198,-0.8421630999999999,4.6271667,11.080627,-0.085128784,0.22230529999999998,0.94477844,10.62099394,76.14430236,0.0,0
19-02-2019 11:27:45,1550555865224,0.5752106,10.062012,0.04096985,0.22486877,0.09234619,1.0225372,10.62099394,76.14430236,0.0,0
19-02-2019 11:27:45,1550555865260,-0.15980529999999998,7.0213776,4.922744799999999,-0.21936035,0.25958252,0.7881775,10.62099394,76.14430236,0.0,0
19-02-2019 11:27:45,1550555865284,1.6789398000000002,6.5305634,9.981689,-0.1096344,0.25213623,0.6901703,10.62099394,76.14430236,0.0,0
19-02-2019 11:27:45,1550555865321,0.972641,9.549652,5.1813199999999995,0.28344727,0.23721313,0.333313,10.62099394,76.14430236,0.0,0
19-02-2019 11:27:45,1550555865342,2.3684692000000003,4.394928,11.518768,-0.07661438,0.15199279999999998,0.21400452,10.62099394,76.14430236,0.0,0
19-02-2019 11:27:45,1550555865381,2.897583,9.877655,3.8932343,0.50183105,0.14454651,-0.1822815,10.62099394,76.14430236,0.0,0
19-02-2019 11:27:45,1550555865403,0.86491394,5.3095245,12.17717,-0.13093567,0.20739746,-0.2419281,10.62099394,76.14430236,0.0,0
19-02-2019 11:27:45,1550555865443,2.351715,9.236008,4.1183014,0.33885193,0.08488464,-0.35379028,10.62099394,76.14430236,0.0,0
19-02-2019 11:27:45,1550555865463,1.7579498,6.604782000000001,9.897903,-0.17887878,0.12322998,-0.4688263,10.62099394,76.14430236,0.0,0
19-02-2019 11:27:45,1550555865502,0.46028137,7.833008,3.129486,0.19610596,0.13388062,-0.7117157,10.62099394,76.14430236,0.0,0
19-02-2019 11:27:45,1550555865527,-0.018554688,9.6262665,7.1708984,-0.51123047,0.06037903,-0.82569885,10.62099394,76.14430236,0.0,0
19-02-2019 11:27:45,1550555865562,-0.62667847,10.607895,4.642624,0.039505005,0.004989624000000001,-0.9609833000000001,10.62099394,76.14430236,0.0,0
19-02-2019 11:27:45,1550555865583,-0.58358765,9.473038,-2.4394226000000003,-0.33760070000000003,-0.17930603,-0.8661804,10.62099394,76.14430236,0.0,0
19-02-2019 11:27:45,1550555865623,2.739563,6.7173157,6.0240784000000005,-0.3961792,-0.18782043,-1.0249023000000002,10.62099394,76.14430236,0.0,0
19-02-2019 11:27:45,1550555865652,1.5041656,7.4140167,0.10560608,-0.15437317,-0.09301758,-1.0600586,10.62099394,76.14430236,0.0,0
19-02-2019 11:27:45,1550555865686,-0.34416199999999997,2.774063,7.9849243,-0.567688,-0.19314575,-1.1569976999999998,10.62099394,76.14430236,0.0,0
19-02-2019 11:27:45,1550555865708,0.809845,5.347824,8.806137,0.009674071999999999,-0.18888855,-0.9940033000000001,10.62099394,76.14430236,0.0,0
19-02-2019 11:27:45,1550555865748,1.2719268999999997,4.955185,14.904175,-0.2587738,-0.1963501,-0.9801636,10.62099394,76.14430236,0.0,0
19-02-2019 11:27:45,1550555865773,-3.2387542999999996,3.5138702000000004,12.981628,0.32818604,-0.1771698,-1.0185089,10.62099394,76.14430236,0.0,0
19-02-2019 11:27:45,1550555865804,0.56562805,5.927231,13.594543,0.20568848,-0.39874268,-0.9641876,10.62099394,76.14430236,0.0,0
19-02-2019 11:27:45,1550555865826,2.3588867000000002,6.4850769999999995,9.419052,0.517807,-0.30712890000000004,-0.87789917,10.62099394,76.14430236,0.0,0
19-02-2019 11:27:45,1550555865868,-2.644989,4.359024,7.702408,0.13111877,-0.30073547,-0.85765076,10.62099394,76.14430236,0.0,0
19-02-2019 11:27:45,1550555865889,-0.48780823,7.265579,10.778961,0.56681824,-0.41471863,-0.6904144,10.62099394,76.14430236,0.0,0
19-02-2019 11:27:45,1550555865926,-0.9906005999999999,4.1315764999999995,9.012039,0.07572937,-0.39555359999999995,-0.47628784,10.62099394,76.14430236,0.0,0
19-02-2019 11:27:45,1550555865952,-1.656189,4.813919,11.427795,0.44750977,-0.4232483,-0.34526062,10.62099394,76.14430236,0.0,0
19-02-2019 11:27:45,1550555865986,0.457901,5.3837433,8.219559,0.1875763,-0.43496704,0.05633545,10.62099394,76.14430236,0.0,0
19-02-2019 11:27:46,1550555866010,0.87927246,3.1595306,11.197952,0.43365479999999995,-0.28475952,0.13943481,10.62099394,76.14430236,0.0,0
19-02-2019 11:27:46,1550555866050,-2.1230621,1.8858185,15.172317499999998,-0.13839722,-0.11752319,0.49949646,10.62099394,76.14430236,0.0,0
19-02-2019 11:27:46,1550555866072,-1.4526825,4.1674805,8.952194,1.042984,-0.24108887,0.49417114,10.62099394,76.14430236,0.0,0
19-02-2019 11:27:46,1550555866107,0.63746643,5.450775,10.060699000000001,0.28451538,-0.19207764,0.6070861999999999,10.62099394,76.14430236,0.0,0
19-02-2019 11:27:46,1550555866135,-2.9777832,5.967926,10.434204,0.15348816,-0.19207764,0.6081543,10.62099394,76.14430236,0.0,0
19-02-2019 11:27:46,1550555866169,-0.09996033,5.9487762,3.3234253,0.29090879999999997,-0.23255920000000002,0.54530334,10.62099394,76.14430236,0.0,0
19-02-2019 11:27:46,1550555866190,-1.6107025,8.060455000000001,5.5260773,-0.054229735999999994,-0.15905762,0.4409027,10.62099394,76.14430236,0.0,0
19-02-2019 11:27:46,1550555866232,2.2272034,5.989471400000001,8.904297,-0.07661438,-0.2549286,0.29815674,10.62099394,76.14430236,0.0,0
19-02-2019 11:27:46,1550555866255,-0.5285187,7.042922999999999,4.520523000000001,0.22486877,-0.12496948,0.24809265,10.62099394,76.14430236,0.0,0
19-02-2019 11:27:46,1550555866288,0.53689575,7.4954224,11.497223,-0.08619689999999999,-0.16226196,0.29496765,10.62099394,76.14430236,0.0,0
19-02-2019 11:27:46,1550555866311,0.48423767,7.0525055,9.162872,0.18118286,-0.086624146,0.20228577,10.62099394,76.14430236,0.0,0
19-02-2019 11:27:46,1550555866352,0.15861511,6.061294599999999,6.687271000000001,0.044830322,-0.1260376,0.25660706,10.62099394,76.14430236,0.0,0
19-02-2019 11:27:46,1550555866375,-0.19332886,6.695755,3.8333892999999994,-0.06701660000000001,-0.08023071,0.319458,10.62099394,76.14430236,0.0,0
19-02-2019 11:27:46,1550555866410,1.5496521,5.283188,12.258575,-0.39831543,-0.13029480000000002,0.24595642,10.62099394,76.14430236,0.0,0
19-02-2019 11:27:46,1550555866432,0.99180603,5.663864,6.806976299999999,0.043762207000000004,0.015640259,0.23851013,10.62099394,76.14430236,0.0,0
19-02-2019 11:27:46,1550555866469,0.19213867,5.386139,6.725586,-0.10536194,-0.007797241,0.23744202,10.62099394,76.14430236,0.0,0
19-02-2019 11:27:46,1550555866490,0.16101074,5.259247,10.520386,0.04057312,-0.058929443,0.17459106,10.62099394,76.14430236,0.0,0
19-02-2019 11:27:46,1550555866529,2.0979156000000003,6.166641,8.669678,0.048034667999999996,-0.1260376,-0.0043792725,10.62099394,76.14430236,0.0,0
19-02-2019 11:27:46,1550555866560,1.5640106000000003,4.327896,8.255478,-0.049972534000000006,-0.032287598,-0.065093994,10.62099394,76.14430236,0.0,0
19-02-2019 11:27:46,1550555866590,0.45550537,4.1555176,6.883590700000001,-0.09259033,-0.11752319,-0.18653870000000003,10.62099394,76.14430236,0.0,0
19-02-2019 11:27:46,1550555866611,0.0796051,6.367751999999999,8.406311,0.09277344,-0.16651917,-0.22702026,10.62099394,76.14430236,0.0,0
19-02-2019 11:27:46,1550555866652,1.1953125,5.0222169999999995,11.549896,-0.29072570000000003,-0.22190857,-0.20144653,10.62099394,76.14430236,0.0,0
19-02-2019 11:27:46,1550555866673,2.284668,4.275223,7.276244999999999,-0.013763428000000001,-0.14201355,-0.114105225,10.62099394,76.14430236,0.0,0
19-02-2019 11:27:46,1550555866716,0.25439453,5.204178,21.631882,-0.42707825,-0.086624146,-0.026748657000000002,10.62099394,76.14430236,0.0,0
19-02-2019 11:27:46,1550555866736,-0.33937073,3.2074127,16.355057000000002,0.11193848,-0.08023071,0.06486511,10.62099394,76.14430236,0.0,0
19-02-2019 11:27:46,1550555866772,-0.21487427,4.373382599999999,15.402160999999998,0.15135193,-0.088760376,0.25448608,10.62099394,76.14430236,0.0,0
19-02-2019 11:27:46,1550555866796,-0.23881531,7.6271057,0.7472534000000001,0.31221008,-0.17503357,0.25660706,10.62099394,76.14430236,0.0,0
19-02-2019 11:27:46,1550555866832,-0.042495727999999997,5.362198,-1.7427063000000003,0.022460938,-0.11218262,0.17138672,10.62099394,76.14430236,0.0,0
19-02-2019 11:27:46,1550555866854,0.6063385,6.056503299999999,7.6018524,-0.25663757,-0.06211853,0.22465515,10.62099394,76.14430236,0.0,0
19-02-2019 11:27:46,1550555866893,-0.3944397,5.481903,2.0520935000000002,0.011810303000000001,-0.09301758,0.16073608,10.62099394,76.14430236,0.0,0
19-02-2019 11:27:46,1550555866919,0.56085205,3.7556762999999997,15.462021,-0.36636353,-0.15054321,0.204422,10.62099394,76.14430236,0.0,0
19-02-2019 11:27:46,1550555866953,0.07243347,4.6175995,6.3808136,0.1843872,-0.1026001,0.17565918,10.62099394,76.14430236,0.0,0
19-02-2019 11:27:46,1550555866975,0.6973114,4.8163147,12.486023,-0.10217285,-0.12922668,0.25128174,10.62099394,76.14430236,0.0,0
19-02-2019 11:27:47,1550555867020,0.5057831,9.772308,-0.63897705,0.5071564000000001,-0.016311646000000003,0.27578735,10.62099394,76.14430236,0.0,0
19-02-2019 11:27:47,1550555867037,0.6901245,-0.4700775,26.195220000000003,-0.42282104,-0.0045928955,0.27046204,10.62099394,76.14430236,0.0,0
19-02-2019 11:27:47,1550555867073,2.5240936,9.168975999999999,2.2939147999999996,1.2240753,-0.21018982,0.31626892,10.62099394,76.14430236,0.0,0
19-02-2019 11:27:47,1550555867098,1.1234893999999997,5.125168,22.797852,0.11833191,0.15625,0.3897705,10.62099394,76.14430236,0.0,0
19-02-2019 11:27:47,1550555867133,-0.7583618000000001,2.8386993,17.092468,0.37187195,-0.08769226,0.29922485,10.62099394,76.14430236,0.0,0
19-02-2019 11:27:47,1550555867160,2.0835571,8.879272,3.6969147000000007,0.79797363,-0.025909424,0.4366455,10.62099394,76.14430236,0.0,0
19-02-2019 11:27:47,1550555867194,-0.42077637,3.9903107,6.4430695,0.07785034,0.015640259,0.17671204,10.62099394,76.14430236,0.0,0
19-02-2019 11:27:47,1550555867218,1.6573944,6.916030999999999,5.401581,0.58491516,-0.013122558999999999,0.2832489,10.62099394,76.14430236,0.0,0
19-02-2019 11:27:47,1550555867254,0.8457488999999999,5.0246124000000005,7.96817,0.023529052999999998,0.06037903,0.5112152,10.62099394,76.14430236,0.0,0
19-02-2019 11:27:47,1550555867279,1.5400696000000003,5.66626,-2.1784515,0.10021973,0.04333496,0.39295959999999996,10.62099394,76.14430236,0.0,0
19-02-2019 11:27:47,1550555867315,0.4339447,3.6263885,0.07688904,-0.38659668,0.13494873,0.35887146,10.62099394,76.14430236,0.0,0
19-02-2019 11:27:47,1550555867337,1.5352783,5.9152527,8.415894,-0.37275696,0.102996826,0.32373047,10.62099394,76.14430236,0.0,0
19-02-2019 11:27:47,1550555867375,2.5647888,2.4029540000000003,8.73671,-0.24810791,0.07849121,0.38763428,10.62099394,76.14430236,0.0,0
19-02-2019 11:27:47,1550555867398,-0.5740050999999999,8.599152,9.129364,0.23658752,0.1477356,0.2832489,10.62099394,76.14430236,0.0,0
19-02-2019 11:27:47,1550555867435,1.9590607,5.5513306,12.335189999999999,-0.22361755,0.032684326,0.31733704,10.62099394,76.14430236,0.0,0
19-02-2019 11:27:47,1550555867459,1.9997558999999998,8.445922999999999,12.995987,0.004348755,0.112579346,0.24702454,10.62099394,76.14430236,0.0,0
19-02-2019 11:27:47,1550555867496,-0.34655762,8.730835,5.775085400000001,0.16734314,0.10939026,0.06486511,10.62099394,76.14430236,0.0,0
19-02-2019 11:27:47,1550555867522,3.5248718,8.292694000000001,0.67063904,-0.694458,0.058258057,0.22679138,10.62099394,76.14430236,0.0,0
19-02-2019 11:27:47,1550555867558,1.0420837,5.5417633,-0.3875885,-0.42388916,0.16903687,0.17671204,10.62099394,76.14430236,0.0,0
19-02-2019 11:27:47,1550555867581,0.27114868,6.3246613,11.418213,-0.8009795999999999,0.13388062,0.16712952,10.62099394,76.14430236,0.0,0
19-02-2019 11:27:47,1550555867618,-0.49020386,4.153122,11.454132000000001,-0.36636353,0.21591187,0.3705902,10.62099394,76.14430236,0.0,0
19-02-2019 11:27:47,1550555867640,0.43156433,2.7596893,-3.0020599999999997,-0.035064697,-0.07171631,0.29389954,10.62099394,76.14430236,0.0,0
19-02-2019 11:27:47,1550555867679,1.1713715,-0.063064575,9.294556,-0.53041077,0.19354248,0.31733704,10.62099394,76.14430236,0.0,0
19-02-2019 11:27:47,1550555867703,2.4786072,11.845688,-1.9222717,0.12472534,0.12750244,0.26620483,10.62099394,76.14430236,0.0,0
19-02-2019 11:27:47,1550555867738,-0.42556763,2.300003,16.244919,-0.9266815,0.25852966,0.22146606,10.62099394,76.14430236,0.0,0
19-02-2019 11:27:47,1550555867764,8.432983,4.7085724,2.6482544,-0.29286194,-0.15586853,0.286438,10.62099394,76.14430236,0.0,0
19-02-2019 11:27:47,1550555867799,9.886261,7.1793976,-6.2964782999999995,0.24829102,-0.037628174,0.9788665999999999,10.62099394,76.14430236,0.0,0
19-02-2019 11:27:47,1550555867821,-4.0025024,7.107558999999999,4.728821,-0.75624084,0.6313629,-0.44433594,10.62099394,76.14430236,0.0,0
19-02-2019 11:27:47,1550555867859,-7.186798,7.579223599999999,-1.6684875,0.044830322,0.19354248,-0.53700256,10.62099394,76.14430236,0.0,0
19-02-2019 11:27:47,1550555867882,2.3038177,3.7509002999999996,10.915436,-0.6326752,-0.37957764,0.38230896,10.62099394,76.14430236,0.0,0
19-02-2019 11:27:47,1550555867920,0.9750366,3.1140442000000004,7.616225999999999,0.12579346,0.19033813,0.2555542,10.62099394,76.14430236,0.0,0
19-02-2019 11:27:47,1550555867943,1.5664062,13.83049,-1.8025665000000002,0.16627502,0.12110901,0.25767517,10.62099394,76.14430236,0.0,0
19-02-2019 11:27:47,1550555867980,2.8664549999999998,9.652603,0.1151886,-0.3333435,0.22444153,0.5058899,10.62099394,76.14430236,0.0,0
19-02-2019 11:27:48,1550555868003,2.2511444,-4.135605,27.248671999999996,-1.4965973,0.43641663,0.6603545999999999,10.62099394,76.14430236,0.0,0
19-02-2019 11:27:48,1550555868041,0.35255432,1.5913239,13.958466,0.9929199000000001,0.25532532,0.5048218,10.62099394,76.14430236,0.0,0
19-02-2019 11:27:48,1550555868066,0.9750366,18.460876000000003,-7.589355499999999,0.84591675,0.15519714,0.29389954,10.62099394,76.14430236,0.0,0
19-02-2019 11:27:48,1550555868101,0.45071409999999995,8.17778,16.580109,-0.7455901999999999,0.43322754,0.5410309,10.62099394,76.14430236,0.0,0
19-02-2019 11:27:48,1550555868123,1.046875,8.101166000000001,-1.2111969,-0.024414062,0.08807373,0.49736023,10.62099394,76.14430236,0.0,0
19-02-2019 11:27:48,1550555868164,7.2358856,-8.174622,21.878479000000002,-0.78393555,0.08062744,0.0062713623,10.62099394,76.14430236,0.0,0
19-02-2019 11:27:48,1550555868184,4.26947,24.257233,-16.962646,1.2304688,0.66970825,-0.37721252,10.62099394,76.14430236,0.0,0
19-02-2019 11:27:48,1550555868221,-0.2579651,19.945282000000002,-19.699219,0.3409729,0.30752563,-0.22595215,10.62099394,76.14430236,0.0,0
19-02-2019 11:27:48,1550555868244,3.9342803999999996,0.54026794,19.228104000000002,-2.3711853,0.07209778,-0.05444336,10.62099394,76.14430236,0.0,0
19-02-2019 11:27:48,1550555868283,1.8513183999999998,15.537552,-17.338547,2.0017242,0.22123718,-0.07788086,10.62099394,76.14430236,0.0,0
19-02-2019 11:27:48,1550555868304,-0.42556763,6.08284,16.323929,-1.1503906000000002,-0.01737976,-0.25790405,10.62099394,76.14430236,0.0,0
19-02-2019 11:27:48,1550555868343,-1.4861908000000001,7.1267242,1.5493164,0.5817260999999999,0.067840576,-0.3665619,10.62099394,76.14430236,0.0,0
19-02-2019 11:27:48,1550555868365,5.5575410000000005,8.951096000000001,8.463776,-0.17355347,-0.012054443,-0.21316528,10.62099394,76.14430236,0.0,0
19-02-2019 11:27:48,1550555868404,-2.2188263,-1.4900208000000001,22.486603,-0.86383057,0.43109129999999996,0.028640747,10.62099394,76.14430236,0.0,0
19-02-2019 11:27:48,1550555868427,0.8816681000000001,14.706757000000001,-7.785675,0.54763794,0.05079651,-0.01184082,10.62099394,76.14430236,0.0,0
19-02-2019 11:27:48,1550555868467,0.8744812,5.524994,16.292816000000002,-1.4742278999999998,0.13388062,-0.1354065,10.62099394,76.14430236,0.0,0
19-02-2019 11:27:48,1550555868487,0.78590393,9.760345,-2.3221130000000003,-0.08938599,0.16796875,-0.02355957,10.62099394,76.14430236,0.0,0
19-02-2019 11:27:48,1550555868526,1.9925842,6.81308,11.911423,-0.9139099,0.09020996,-0.02142334,10.62099394,76.14430236,0.0,0
19-02-2019 11:27:48,1550555868549,0.21607971,2.7118073,12.780517999999999,-0.24598694,0.17543029999999998,-0.078948975,10.62099394,76.14430236,0.0,0
19-02-2019 11:27:48,1550555868584,1.5209198,1.5697784,8.751068,-0.19165039,0.100860596,0.10748291,10.62099394,76.14430236,0.0,0
19-02-2019 11:27:48,1550555868609,-0.040100098,4.141144000000001,7.776642,0.08744812,0.09020996,0.0009460449,10.62099394,76.14430236,0.0,0
19-02-2019 11:27:48,1550555868646,2.1194763,4.232132,2.7033234,0.09489441,0.06890869,0.01159668,10.62099394,76.14430236,0.0,0
19-02-2019 11:27:48,1550555868672,0.26156616,5.2185364000000005,10.592209,0.2578888,0.22763062,0.07977295,10.62099394,76.14430236,0.0,0
19-02-2019 11:27:48,1550555868706,-0.36331177,-2.3471375,19.55371,-0.72535706,0.13815308,-0.039535522000000003,10.62099394,76.14430236,0.0,0
19-02-2019 11:27:48,1550555868726,1.6909026999999999,7.7947083,4.735992400000001,0.9396515,0.061447144,-0.1907959,10.62099394,76.14430236,0.0,0
19-02-2019 11:27:48,1550555868765,-0.68174744,4.323105,12.624893,-0.33972168,0.18075562,-0.28240967,10.62099394,76.14430236,0.0,0
19-02-2019 11:27:48,1550555868793,0.2519989,4.4859160000000005,6.5939026,0.32713318,-0.041885376,-0.35272217,10.62099394,76.14430236,0.0,0
19-02-2019 11:27:48,1550555868829,-0.17178345,4.6990050000000005,9.936202999999999,-0.058502197,0.13494873,-0.06829834,10.62099394,76.14430236,0.0,0
19-02-2019 11:27:48,1550555868851,1.9782104,6.145096,9.955353,0.0075531006,-0.014190673999999999,0.05101013,10.62099394,76.14430236,0.0,0
19-02-2019 11:27:48,1550555868888,-1.5173187,4.354233,8.621780000000001,-0.10536194,0.16584778,-0.13008118,10.62099394,76.14430236,0.0,0
19-02-2019 11:27:48,1550555868911,0.7835083,6.449157700000001,9.610596000000001,-0.07022095,-0.013122558999999999,-0.10450745,10.62099394,76.14430236,0.0,0
19-02-2019 11:27:48,1550555868948,0.90800476,6.08284,9.493271,-0.042526245,0.07635498,-0.0011749268,10.62099394,76.14430236,0.0,0
19-02-2019 11:27:48,1550555868972,-0.008972168,4.517044,11.525955,0.0022277832,0.047607422,-0.067230225,10.62099394,76.14430236,0.0,0
19-02-2019 11:27:49,1550555869009,0.53211975,6.2624054000000005,8.813324,0.14497375,0.0007324219,-0.16096497,10.62099394,76.14430236,0.0,0
19-02-2019 11:27:49,1550555869036,1.5328979999999999,4.110030999999999,7.3289184999999994,0.09703064,0.05718994,-0.114105225,10.62099394,76.14430236,0.0,0
19-02-2019 11:27:49,1550555869069,1.1091156,5.316696,10.115768,-0.08299255,0.028427123999999998,-0.17375183,10.62099394,76.14430236,0.0,0
19-02-2019 11:27:49,1550555869092,1.18573,3.5785065,11.468491,-0.0158844,0.016708373999999998,-0.23553467,10.62099394,76.14430236,0.0,0
19-02-2019 11:27:49,1550555869133,1.4012146,5.6686554000000005,6.390396,0.13537598,-0.006729125999999999,-0.06829834,10.62099394,76.14430236,0.0,0
19-02-2019 11:27:49,1550555869156,0.8912505999999999,5.264023,12.962479,-0.16183472,0.05718994,-0.03526306,10.62099394,76.14430236,0.0,0
19-02-2019 11:27:49,1550555869190,1.0037689,7.220092999999999,10.49884,0.14497375,0.015640259,-0.015029907,10.62099394,76.14430236,0.0,0
19-02-2019 11:27:49,1550555869214,1.1234893999999997,7.751602,7.700027499999999,0.062942505,0.056121826,-0.065093994,10.62099394,76.14430236,0.0,0
19-02-2019 11:27:49,1550555869252,0.019760132,6.643097,4.278702,0.18971252,0.05505371,0.0020141601999999997,10.62099394,76.14430236,0.0,0
19-02-2019 11:27:49,1550555869275,0.675766,3.8107452000000004,6.962600699999999,0.076797485,-0.005661010699999999,0.012664795,10.62099394,76.14430236,0.0,0
19-02-2019 11:27:49,1550555869311,0.5632324000000001,4.3685913,9.517211999999999,0.03843689,0.04121399,-0.026748657000000002,10.62099394,76.14430236,0.0,0
19-02-2019 11:27:49,1550555869334,0.44592285,3.0422057999999996,9.098236,0.11407471,0.018844603999999997,-0.059768677,10.62099394,76.14430236,0.0,0
19-02-2019 11:27:49,1550555869374,1.4634552,5.0294037000000005,6.7710724,0.20675659,0.026290894,-0.037399292,10.62099394,76.14430236,0.0,0
19-02-2019 11:27:49,1550555869393,-0.040100098,6.295929,12.165207,0.18650818,0.07423401,-0.013961791999999999,10.62099394,76.14430236,0.0,0
19-02-2019 11:27:49,1550555869434,1.3078308,6.0924225,9.172455000000001,0.14283752,0.028427123999999998,-0.08534241,10.62099394,76.14430236,0.0,0
19-02-2019 11:27:49,1550555869457,0.55366516,7.402054,5.9498596,-0.0052337646,0.038009644,-0.088531494,10.62099394,76.14430236,0.0,0
19-02-2019 11:27:49,1550555869493,0.7044983,6.4276123,5.988159,0.008621216,0.0071258545,-0.123687744,10.62099394,76.14430236,0.0,0
19-02-2019 11:27:49,1550555869515,-0.61231995,6.461136,7.6641083,0.059753417999999996,0.02949524,-0.14605713,10.62099394,76.14430236,0.0,0
19-02-2019 11:27:49,1550555869552,0.6853484999999999,5.345428500000001,9.701569000000001,-0.14691162,-0.006729125999999999,-0.13754272,10.62099394,76.14430236,0.0,0
19-02-2019 11:27:49,1550555869574,0.8601226999999999,6.5856323,7.824524,-0.10430908,-0.033355712999999995,-0.18760681,10.62099394,76.14430236,0.0,0
19-02-2019 11:27:49,1550555869615,1.2384033,8.17778,2.6889496,0.06933594,-0.024841309,-0.19293213,10.62099394,76.14430236,0.0,0
19-02-2019 11:27:49,1550555869637,0.16101074,5.386139,9.162872,-0.33760070000000003,0.009246826,-0.1822815,10.62099394,76.14430236,0.0,0
19-02-2019 11:27:49,1550555869674,1.0348969000000001,5.7835693,9.308929,-0.08406067,-0.051467896,-0.09599304,10.62099394,76.14430236,0.0,0
19-02-2019 11:27:49,1550555869701,0.61590576,7.3110657,7.858032000000001,-0.052108765,-0.021636963,-0.05444336,10.62099394,76.14430236,0.0,0
19-02-2019 11:27:49,1550555869735,-0.42556763,5.0892487,8.12619,-0.15756226,-0.0024719238,-0.04698181,10.62099394,76.14430236,0.0,0
19-02-2019 11:27:49,1550555869756,1.367691,5.7524414,7.158935499999999,-0.0435791,-0.044006348,-0.04486084,10.62099394,76.14430236,0.0,0
19-02-2019 11:27:49,1550555869798,0.95588684,3.9304657,9.964935,-0.1096344,-0.028030396000000003,-0.09492493,10.62099394,76.14430236,0.0,0
19-02-2019 11:27:49,1550555869818,0.36930847,7.548095699999999,4.896408,0.10874939,0.013519287,-0.029937744,10.62099394,76.14430236,0.0,0
19-02-2019 11:27:49,1550555869855,0.8673095999999999,6.070876999999999,6.3209534000000005,-0.13519287,-0.018447876000000002,-0.01928711,10.62099394,76.14430236,0.0,0
19-02-2019 11:27:49,1550555869880,0.73083496,5.932007,11.990433,-0.035064697,0.006057739300000001,-0.08746338,10.62099394,76.14430236,0.0,0
19-02-2019 11:27:49,1550555869916,-0.0017852782999999998,5.7380830000000005,5.0113373,0.21420288,0.003921509,-0.16203308,10.62099394,76.14430236,0.0,0
19-02-2019 11:27:49,1550555869939,1.0899658,5.8984985,8.992889,-0.0009765625,-0.03868103,-0.10131836,10.62099394,76.14430236,0.0,0
19-02-2019 11:27:49,1550555869976,0.08200073,6.789139,5.9139404,0.1843872,0.008178711,-0.15138245,10.62099394,76.14430236,0.0,0
19-02-2019 11:27:50,1550555870005,1.0133514000000001,5.2496643,10.000854499999999,0.05441284,-0.032287598,-0.12261963,10.62099394,76.14430236,0.0,0
19-02-2019 11:27:50,1550555870036,0.94869995,6.688583400000001,6.7710724,0.20355225,-0.024841309,-0.14179993,10.62099394,76.14430236,0.0,0
19-02-2019 11:27:50,1550555870061,0.04849243,5.967926,9.026413,0.086380005,-0.023773192999999998,-0.15563965,10.62099394,76.14430236,0.0,0
19-02-2019 11:27:50,1550555870100,0.4914093,6.5233765,11.142883,-0.009490967,-0.08129883,-0.13114929,10.62099394,76.14430236,0.0,0
19-02-2019 11:27:50,1550555870121,0.75956726,5.328674299999999,7.15654,0.20994568,-0.05999756,-0.09278869999999999,10.62099394,76.14430236,0.0,0
19-02-2019 11:27:50,1550555870159,0.7691345,7.030945,2.80867,0.15029907,-0.046142578,-0.06829834,10.62099394,76.14430236,0.0,0
19-02-2019 11:27:50,1550555870181,0.09158325,3.4803467000000006,13.644820999999999,-0.30030823,-0.08981323,-0.11090088,10.62099394,76.14430236,0.0,0
19-02-2019 11:27:50,1550555870220,0.6901245,8.0963745,6.1198425,0.2813263,-0.072769165,-0.061904907,10.62099394,76.14430236,0.0,0
19-02-2019 11:27:50,1550555870240,0.36212158,4.2033997,12.998383,-0.15011597,-0.058929443,-0.027816772000000003,10.62099394,76.14430236,0.0,0
19-02-2019 11:27:50,1550555870281,1.288681,6.7723694000000005,8.49968,0.2664032,-0.08129883,-0.05444336,10.62099394,76.14430236,0.0,0
19-02-2019 11:27:50,1550555870303,-0.13825989,5.510635400000001,10.810089,-0.05529785,-0.053604125999999995,-0.059768677,10.62099394,76.14430236,0.0,0
19-02-2019 11:27:50,1550555870338,1.2743225,6.482681299999999,5.523697,0.20355225,-0.10153198,-0.07255554,10.62099394,76.14430236,0.0,0
19-02-2019 11:27:50,1550555870362,0.3717041,5.692596400000001,9.62735,0.06933594,-0.037628174,-0.078948975,10.62099394,76.14430236,0.0,0
19-02-2019 11:27:50,1550555870402,0.24241638,6.604782000000001,5.3297577,0.19822693,-0.04827881,-0.07574463,10.62099394,76.14430236,0.0,0
19-02-2019 11:27:50,1550555870420,0.78590393,5.0294037000000005,7.048797599999999,-0.038253784,-0.08236694,-0.07362366,10.62099394,76.14430236,0.0,0
19-02-2019 11:27:50,1550555870460,0.7451935000000001,7.8904724,4.9730225,0.17160034,-0.07916260000000001,-0.07574463,10.62099394,76.14430236,0.0,0
19-02-2019 11:27:50,1550555870487,0.88645935,5.630340599999999,11.760589999999999,-0.15011597,-0.058929443,-0.048049927,10.62099394,76.14430236,0.0,0
19-02-2019 11:27:50,1550555870520,0.42677307,6.4467620000000005,4.2571564,0.19290161,-0.07597351,-0.0054473877,10.62099394,76.14430236,0.0,0
19-02-2019 11:27:50,1550555870548,0.043701172,6.3103027,6.0647736,-0.063827515,-0.11112976,-0.07041931,10.62099394,76.14430236,0.0,0
19-02-2019 11:27:50,1550555870581,1.0971527,6.6095733999999995,10.812485,-0.23640442,-0.16865539999999998,-0.09599304,10.62099394,76.14430236,0.0,0
19-02-2019 11:27:50,1550555870603,1.1330566,5.196991000000001,9.747055,-0.02973938,-0.06425476,-0.050186157,10.62099394,76.14430236,0.0,0
19-02-2019 11:27:50,1550555870643,0.07720947,6.8705444,9.905075,-0.021209717000000003,-0.084487915,-0.0043792725,10.62099394,76.14430236,0.0,0
19-02-2019 11:27:50,1550555870666,0.27114868,4.7780000000000005,11.391876,-0.23852539,-0.12496948,-0.0075683593999999995,10.62099394,76.14430236,0.0,0
19-02-2019 11:27:50,1550555870702,0.5201416,5.742874,5.4470825,0.12472534,-0.11538696,0.028640747,10.62099394,76.14430236,0.0,0
19-02-2019 11:27:50,1550555870729,0.49859620000000004,7.232071,2.7272644,-0.09791565,-0.098342896,0.031845093,10.62099394,76.14430236,0.0,0
19-02-2019 11:27:50,1550555870762,0.5584564000000001,6.125946,11.530746,-0.34292603,-0.10153198,0.02545166,10.62099394,76.14430236,0.0,0
19-02-2019 11:27:50,1550555870782,0.6183014,5.122772,6.9865417,-0.1565094,-0.07597351,0.063797,10.62099394,76.14430236,0.0,0
19-02-2019 11:27:50,1550555870822,0.46746826,7.038131699999999,5.394409,0.11088562,-0.05467224,0.14157104,10.62099394,76.14430236,0.0,0
19-02-2019 11:27:50,1550555870844,-0.2866974,4.9527893,11.250625999999999,-0.23640442,-0.086624146,0.15327454,10.62099394,76.14430236,0.0,0
19-02-2019 11:27:50,1550555870883,0.165802,6.6837919999999995,4.458267,0.24617004,-0.088760376,0.042495727999999997,10.62099394,76.14430236,0.0,0
19-02-2019 11:27:50,1550555870905,1.2455902,6.0732726999999995,7.5180664,-0.057434082000000004,-0.0834198,0.054214477999999997,10.62099394,76.14430236,0.0,0
19-02-2019 11:27:50,1550555870944,0.31663513,5.939193700000001,7.23555,-0.009490967,-0.035491943,0.032913208,10.62099394,76.14430236,0.0,0
19-02-2019 11:27:50,1550555870966,-0.39923096,4.667877,10.434204,-0.0020446776999999998,-0.08981323,0.057403564000000004,10.62099394,76.14430236,0.0,0
19-02-2019 11:27:51,1550555871003,3.3955839999999995,7.011794999999999,9.081482000000001,0.23551941,-0.098342896,0.110672,10.62099394,76.14430236,0.0,0
19-02-2019 11:27:51,1550555871031,0.7068939000000001,4.414093,8.571503,0.1375122,0.004989624000000001,-0.01184082,10.62099394,76.14430236,0.0,0
19-02-2019 11:27:51,1550555871066,1.5735931,5.5944366,9.407089,0.15029907,-0.05039978,0.057403564000000004,10.62099394,76.14430236,0.0,0
19-02-2019 11:27:51,1550555871087,-0.20530700000000002,7.6773834,4.774307299999999,0.11088562,0.019897461,-0.00970459,10.62099394,76.14430236,0.0,0
19-02-2019 11:27:51,1550555871125,0.78829956,4.4236603,10.683197,-0.2715454,-0.07916260000000001,0.021194458,10.62099394,76.14430236,0.0,0
19-02-2019 11:27:51,1550555871149,1.0420837,6.125946,3.378479,0.08956909,-0.05467224,0.03717041,10.62099394,76.14430236,0.0,0
19-02-2019 11:27:51,1550555871185,1.8034363000000002,4.7157593,8.506866,-0.28219604,-0.044006348,0.09043884,10.62099394,76.14430236,0.0,0
19-02-2019 11:27:51,1550555871213,0.39085388,5.278396599999999,8.415894,0.117263794,-0.00033569336000000005,-0.03314209,10.62099394,76.14430236,0.0,0
19-02-2019 11:27:51,1550555871251,1.4850006000000002,5.821884,12.8714905,-0.15969849,-0.074905396,0.01586914,10.62099394,76.14430236,0.0,0
19-02-2019 11:27:51,1550555871268,1.0301056,4.689422599999999,7.776642,-0.120285034,0.0028533936,0.03503418,10.62099394,76.14430236,0.0,0
19-02-2019 11:27:51,1550555871306,1.6909026999999999,7.512192,7.592285,0.11193848,-0.09408569,-0.07148743,10.62099394,76.14430236,0.0,0
19-02-2019 11:27:51,1550555871329,0.91519165,4.991089,6.814163000000001,-0.33653259999999996,0.05079651,-0.015029907,10.62099394,76.14430236,0.0,0
19-02-2019 11:27:51,1550555871367,0.99180603,6.509018,5.966614,0.01927185,-0.051467896,-0.0054473877,10.62099394,76.14430236,0.0,0
19-02-2019 11:27:51,1550555871390,0.99658203,3.3295135,14.121262,-0.20657349,0.009246826,0.014801025,10.62099394,76.14430236,0.0,0
19-02-2019 11:27:51,1550555871431,1.0827788999999999,4.5840760000000005,13.04866,0.17053223,-0.047210693,-0.002243042,10.62099394,76.14430236,0.0,0
19-02-2019 11:27:51,1550555871451,0.09637451,7.0908050000000005,7.513275,0.32392883,0.01777649,-0.03526306,10.62099394,76.14430236,0.0,0
19-02-2019 11:27:51,1550555871487,-0.27713013,8.496201,1.1279297,0.33032227,-0.009918213,0.07232666,10.62099394,76.14430236,0.0,0
19-02-2019 11:27:51,1550555871511,-0.31063843,2.6519623,12.945708999999999,-0.22148132,-0.1537323,0.106414795,10.62099394,76.14430236,0.0,0
19-02-2019 11:27:51,1550555871550,1.0564423,6.9351807,5.370468,0.42193604,-0.077041626,0.019058228,10.62099394,76.14430236,0.0,0
19-02-2019 11:27:51,1550555871570,0.5967560000000001,2.8841857999999996,11.138092,-0.085128784,-0.045074462999999995,0.041427612,10.62099394,76.14430236,0.0,0
19-02-2019 11:27:51,1550555871608,0.9415283000000001,5.276001,6.6489716,0.17799377,-0.04295349,0.10534668,10.62099394,76.14430236,0.0,0
19-02-2019 11:27:51,1550555871639,1.8130188000000003,6.358185,3.4981995,-0.14265442,-0.030166626000000002,0.07337952,10.62099394,76.14430236,0.0,0
19-02-2019 11:27:51,1550555871669,-1.2563476999999998,5.3310699999999995,8.444611,-0.38233948,0.09979248,0.118133545,10.62099394,76.14430236,0.0,0
19-02-2019 11:27:51,1550555871691,0.40283203,6.3653564000000005,9.246674,-0.3652954,-0.0834198,0.12664795,10.62099394,76.14430236,0.0,0
19-02-2019 11:27:51,1550555871731,0.40522766,3.394165,12.004791,-0.33760070000000003,0.023101807000000002,0.115997314,10.62099394,76.14430236,0.0,0
19-02-2019 11:27:51,1550555871756,0.5632324000000001,7.457122999999999,7.5587615999999995,0.07891846,-0.035491943,0.12239075,10.62099394,76.14430236,0.0,0
19-02-2019 11:27:51,1550555871790,0.24960327,3.2433167000000003,9.900284,-0.31309509999999996,-0.02909851,0.055282593,10.62099394,76.14430236,0.0,0
19-02-2019 11:27:51,1550555871812,0.5560608,3.5641480000000003,6.625030499999999,0.06187439,0.04121399,0.20121765,10.62099394,76.14430236,0.0,0
19-02-2019 11:27:51,1550555871851,1.3246002000000001,5.276001,13.829178,-0.08193969999999999,0.024169922000000003,0.044631958,10.62099394,76.14430236,0.0,0
19-02-2019 11:27:51,1550555871872,-0.43753052,0.564209,13.932129000000002,0.20462036,0.05293274,0.069122314,10.62099394,76.14430236,0.0,0
19-02-2019 11:27:51,1550555871911,0.7044983,4.497879,11.317657,0.46348572,0.008178711,0.12878418,10.62099394,76.14430236,0.0,0
19-02-2019 11:27:51,1550555871935,1.0899658,6.2671967,1.4391785,0.43151855,0.020965576,0.12878418,10.62099394,76.14430236,0.0,0
19-02-2019 11:27:51,1550555871971,0.28311157,3.8466644,0.30433655,0.043762207000000004,0.07102966,-0.034210205,10.62099394,76.14430236,0.0,0
19-02-2019 11:27:51,1550555871996,2.64859,5.881729,5.1549835,-0.31309509999999996,0.08488464,0.036102295,10.62099394,76.14430236,0.0,0
19-02-2019 11:27:52,1550555872034,-0.8349761999999998,3.8083496,11.348785000000001,-0.20443726,0.18075562,0.030776977999999997,10.62099394,76.14430236,0.0,0
19-02-2019 11:27:52,1550555872054,-1.4048003999999998,6.5832367,5.9139404,0.11621094,-0.055725098,0.040359497,10.62099394,76.14430236,0.0,0
19-02-2019 11:27:52,1550555872091,2.3708649,6.9136353,9.359207000000001,-0.013763428000000001,-0.035491943,0.09788513,10.62099394,76.14430236,0.0,0
19-02-2019 11:27:52,1550555872116,-0.9139862,4.8043365,11.4206085,0.27067566,0.049728394,0.09895325,10.62099394,76.14430236,0.0,0
19-02-2019 11:27:52,1550555872152,1.0301056,8.158615,4.8437347,0.32286072,0.024169922000000003,-0.00970459,10.62099394,76.14430236,0.0,0
19-02-2019 11:27:52,1550555872174,0.27833557,-3.156372,21.440338,-0.21722412,0.09234619,-0.002243042,10.62099394,76.14430236,0.0,0
19-02-2019 11:27:52,1550555872212,2.8784332000000004,8.194533999999999,8.521225,0.84484863,-0.037628174,-0.039535522000000003,10.62099394,76.14430236,0.0,0
19-02-2019 11:27:52,1550555872235,0.7332306,1.7589111000000002,14.485184,0.49864197,0.20739746,-0.013961791999999999,10.62099394,76.14430236,0.0,0
19-02-2019 11:27:52,1550555872272,0.78829956,6.5951996,9.644119,0.37506104,0.058258057,-0.06297302,10.62099394,76.14430236,0.0,0
19-02-2019 11:27:52,1550555872297,1.6047211000000001,2.4723968999999997,10.999236999999999,-0.059570312,0.028427123999999998,-0.05444336,10.62099394,76.14430236,0.0,0
19-02-2019 11:27:52,1550555872334,0.07003784,5.1036224,7.216385000000001,0.12472534,0.08169556,-0.16096497,10.62099394,76.14430236,0.0,0
19-02-2019 11:27:52,1550555872355,0.18974304,6.3222656,4.625869799999999,-0.25663757,0.006057739300000001,-0.114105225,10.62099394,76.14430236,0.0,0
19-02-2019 11:27:52,1550555872394,1.3389587,4.088470500000001,7.881973299999999,-0.31202698,-0.023773192999999998,-0.053375244,10.62099394,76.14430236,0.0,0
19-02-2019 11:27:52,1550555872416,1.3150177,6.125946,6.924301,-0.15863037,0.04547119,-0.028884887999999997,10.62099394,76.14430236,0.0,0
19-02-2019 11:27:52,1550555872454,-0.15980529999999998,4.675049,6.9171143,-0.22468567,0.049728394,-0.08213806,10.62099394,76.14430236,0.0,0
19-02-2019 11:27:52,1550555872476,2.7108307000000003,4.1555176,10.477295,-0.24491882,0.010314941,-0.028884887999999997,10.62099394,76.14430236,0.0,0
19-02-2019 11:27:52,1550555872516,-0.47344970000000003,6.003845,8.320114,-0.020141601999999998,0.11790466,-0.049118042,10.62099394,76.14430236,0.0,0
19-02-2019 11:27:52,1550555872536,0.8122406,2.793213,11.655242999999999,-0.20657349,-0.00033569336000000005,-0.06402588,10.62099394,76.14430236,0.0,0
19-02-2019 11:27:52,1550555872576,-0.41358948,5.422043,12.816421499999999,0.06826782,0.08274841,-0.10343933,10.62099394,76.14430236,0.0,0
19-02-2019 11:27:52,1550555872595,0.77153015,4.593658400000001,5.734375,0.034179688,-0.051467896,-0.07041931,10.62099394,76.14430236,0.0,0
19-02-2019 11:27:52,1550555872636,0.19932556,4.75885,9.651291,-0.042526245,0.03694153,-0.08320618,10.62099394,76.14430236,0.0,0
19-02-2019 11:27:52,1550555872657,0.10354614,5.3262787000000005,9.823669,0.12472534,-0.07171631,-0.08001709,10.62099394,76.14430236,0.0,0
19-02-2019 11:27:52,1550555872696,1.4730377000000001,3.8203278,12.960083000000001,0.027786255,-0.037628174,0.045684814000000004,10.62099394,76.14430236,0.0,0
19-02-2019 11:27:52,1550555872721,2.2248077,6.1834106,4.0249176,0.19822693,0.018844603999999997,-0.0065002440000000005,10.62099394,76.14430236,0.0,0
19-02-2019 11:27:52,1550555872756,0.89364624,6.200165,6.1797028,0.098098755,0.010314941,-0.015029907,10.62099394,76.14430236,0.0,0
19-02-2019 11:27:52,1550555872778,-0.040100098,6.5066223,5.791839599999999,-0.06915283,0.025222777999999998,-0.036331177,10.62099394,76.14430236,0.0,0
19-02-2019 11:27:52,1550555872817,0.4219818,7.9024353000000005,0.7233124,0.20462036,-0.06744385,-0.05444336,10.62099394,76.14430236,0.0,0
19-02-2019 11:27:52,1550555872839,0.82899475,2.2233887,13.343155,-0.40684509999999996,-0.08236694,-0.04698181,10.62099394,76.14430236,0.0,0
19-02-2019 11:27:52,1550555872881,2.1122894,6.0445404,7.5539703,0.24403381,-0.041885376,-0.02142334,10.62099394,76.14430236,0.0,0
19-02-2019 11:27:52,1550555872900,0.12271118,4.057358,12.399841,0.10874939,0.03907776,-0.037399292,10.62099394,76.14430236,0.0,0
19-02-2019 11:27:52,1550555872937,2.8688507000000003,7.200943,7.4917297000000005,0.26533508,-0.10580444,0.08830261,10.62099394,76.14430236,0.0,0
19-02-2019 11:27:52,1550555872963,-0.29627990000000004,3.9424286,13.122894,-0.15011597,0.10618591,0.08616638,10.62099394,76.14430236,0.0,0
19-02-2019 11:27:52,1550555872999,-0.28192140000000004,5.939193700000001,9.098236,0.15029907,0.006057739300000001,0.14157104,10.62099394,76.14430236,0.0,0
19-02-2019 11:27:53,1550555873021,0.15861511,4.5481567,9.110199,-0.045715332000000004,-0.04081726,0.15861511,10.62099394,76.14430236,0.0,0
19-02-2019 11:27:53,1550555873062,-0.13346863,4.9192656999999995,8.466171000000001,0.060806274,0.04866028,0.040359497,10.62099394,76.14430236,0.0,0
19-02-2019 11:27:53,1550555873084,0.3645172,6.087631,4.803039599999999,0.046966553,-0.033355712999999995,0.06700134,10.62099394,76.14430236,0.0,0
19-02-2019 11:27:53,1550555873118,2.1889038,4.0717163,6.665725699999999,-0.15116882,0.0018005370999999999,0.1191864,10.62099394,76.14430236,0.0,0
19-02-2019 11:27:53,1550555873142,0.43634033,4.651108,10.61377,-0.016952515,0.061447144,-0.0043792725,10.62099394,76.14430236,0.0,0
19-02-2019 11:27:53,1550555873179,1.5735931,4.6104126,9.160477,0.0309906,0.004989624000000001,0.07019043,10.62099394,76.14430236,0.0,0
19-02-2019 11:27:53,1550555873201,1.0899658,4.591263,7.8197327,0.062942505,0.100860596,0.02331543,10.62099394,76.14430236,0.0,0
19-02-2019 11:27:53,1550555873240,-0.06404114,5.077286,12.466873,-0.098983765,0.04547119,-0.07041931,10.62099394,76.14430236,0.0,0
19-02-2019 11:27:53,1550555873264,1.8082275,5.4292297,7.755081,0.11514282,-0.009918213,-0.03526306,10.62099394,76.14430236,0.0,0
19-02-2019 11:27:53,1550555873300,0.19932556,8.165802000000001,10.625732000000001,0.15988159,0.034820557,-0.17056274,10.62099394,76.14430236,0.0,0
19-02-2019 11:27:53,1550555873323,0.45550537,7.3565674,10.913039999999999,0.05015564,-0.0045928955,-0.13754272,10.62099394,76.14430236,0.0,0
19-02-2019 11:27:53,1550555873367,1.2048798,5.122772,6.876419,0.27493286,-0.07171631,-0.11943054,10.62099394,76.14430236,0.0,0
19-02-2019 11:27:53,1550555873383,-0.13825989,6.4515533,5.83255,0.20887756,-0.05039978,-0.05444336,10.62099394,76.14430236,0.0,0
19-02-2019 11:27:53,1550555873421,1.3509368999999998,4.9982758,6.028869599999999,0.07252502400000001,-0.051467896,0.009475708000000001,10.62099394,76.14430236,0.0,0
19-02-2019 11:27:53,1550555873444,0.6973114,4.636749299999999,11.358353,0.09916687,0.016708373999999998,0.016921997,10.62099394,76.14430236,0.0,0
19-02-2019 11:27:53,1550555873482,0.64224243,6.741256699999999,6.862045299999999,0.26747129999999997,-0.028030396000000003,0.054214477999999997,10.62099394,76.14430236,0.0,0
19-02-2019 11:27:53,1550555873504,0.9295502,3.8059540000000003,7.680862400000001,0.06826782,0.01777649,-0.015029907,10.62099394,76.14430236,0.0,0
19-02-2019 11:27:53,1550555873542,0.10115051,5.474716,6.481369,0.07572937,0.0071258545,-0.0075683593999999995,10.62099394,76.14430236,0.0,0
19-02-2019 11:27:53,1550555873565,1.7364043999999998,7.449936,6.613052400000001,0.15135193,0.0028533936,0.040359497,10.62099394,76.14430236,0.0,0
19-02-2019 11:27:53,1550555873603,0.21847534,4.742096,9.692001,-0.28326416,0.008178711,-0.061904907,10.62099394,76.14430236,0.0,0
19-02-2019 11:27:53,1550555873625,1.6549988000000002,6.851379400000001,3.2587737999999997,-0.1458435,-0.007797241,0.0030822754,10.62099394,76.14430236,0.0,0
19-02-2019 11:27:53,1550555873663,0.9702606,3.9807434,10.781357,-0.49525452,-0.00033569336000000005,0.0073394775,10.62099394,76.14430236,0.0,0
19-02-2019 11:27:53,1550555873686,1.3581085,6.2576294,0.8885193000000001,-0.30458070000000004,0.018844603999999997,-0.0033111571999999995,10.62099394,76.14430236,0.0,0
19-02-2019 11:27:53,1550555873723,-0.80384827,4.512253,-0.08592224,-0.5144348,0.061447144,0.042495727999999997,10.62099394,76.14430236,0.0,0
19-02-2019 11:27:53,1550555873747,1.4514923,4.789978,1.6211395,-0.6294860999999999,-0.09088135,0.03503418,10.62099394,76.14430236,0.0,0
19-02-2019 11:27:53,1550555873783,1.0564423,2.5394287,2.207718,-0.58047485,-0.031234741,-0.050186157,10.62099394,76.14430236,0.0,0
19-02-2019 11:27:53,1550555873806,1.9853973000000003,5.1299589999999995,12.739807,-0.647583,0.079559326,-0.008636475,10.62099394,76.14430236,0.0,0
19-02-2019 11:27:53,1550555873849,-0.50457764,4.3494415,8.004089,-0.10003662,-0.046142578,-0.20783997,10.62099394,76.14430236,0.0,0
19-02-2019 11:27:53,1550555873868,2.6773224,1.4931641000000002,22.134659,-0.19911194,0.14241028,-0.02355957,10.62099394,76.14430236,0.0,0
19-02-2019 11:27:53,1550555873904,-1.6657562,3.3582457999999997,6.957824700000001,0.5124817,-0.058929443,0.010543823,10.62099394,76.14430236,0.0,0
19-02-2019 11:27:53,1550555873928,-0.35853577,5.5681,17.183456,0.7457733,-0.046142578,0.16287231,10.62099394,76.14430236,0.0,0
19-02-2019 11:27:53,1550555873968,-0.62667847,-2.4572754,16.649551000000002,0.12686157,-0.039749146,0.01373291,10.62099394,76.14430236,0.0,0
19-02-2019 11:27:53,1550555873987,-0.28192140000000004,3.8897552,16.378998,1.2773438,-0.074905396,0.15861511,10.62099394,76.14430236,0.0,0
19-02-2019 11:27:54,1550555874030,0.8122406,-1.1620026,11.937759,0.50502014,-0.047210693,0.12132263,10.62099394,76.14430236,0.0,0
19-02-2019 11:27:54,1550555874051,1.0348969000000001,14.108215,-5.092193599999999,2.5609894,-0.08555603,-0.059768677,10.62099394,76.14430236,0.0,0
19-02-2019 11:27:54,1550555874086,1.0779877,-5.878586,22.6949,-1.7639923,0.05079651,0.22679138,10.62099394,76.14430236,0.0,0
19-02-2019 11:27:54,1550555874108,1.1139069,14.780975,-8.561401,1.3167572,-0.061050415,0.09788513,10.62099394,76.14430236,0.0,0
19-02-2019 11:27:54,1550555874150,-0.96665955,0.032699585,14.865860000000001,-1.3421478,0.08807373,0.14157104,10.62099394,76.14430236,0.0,0
19-02-2019 11:27:54,1550555874170,1.4395142,11.828934,-9.327544999999999,0.7191466999999999,-0.09408569,0.063797,10.62099394,76.14430236,0.0,0
19-02-2019 11:27:54,1550555874207,-1.7711028999999998,-0.8866729999999999,28.44339,-2.0377655,0.24574279999999998,0.15008545,10.62099394,76.14430236,0.0,0
19-02-2019 11:27:54,1550555874232,-1.0576324,7.002228,-3.5766754,0.67440796,0.067840576,0.18417358,10.62099394,76.14430236,0.0,0
19-02-2019 11:27:54,1550555874268,-1.2036743,-3.9871673999999997,31.812027,-1.793808,0.22869873,0.118133545,10.62099394,76.14430236,0.0,0
19-02-2019 11:27:54,1550555874290,-4.684845,7.916809,-14.697739000000002,0.9588318000000001,0.013519287,0.14369202,10.62099394,76.14430236,0.0,0
19-02-2019 11:27:54,1550555874333,6.9150543,4.4428253,2.681778,-1.0332184000000002,-0.00033569336000000005,0.16926575,10.62099394,76.14430236,0.0,0
19-02-2019 11:27:54,1550555874351,2.1529846,5.553726,16.876998999999998,-0.6198883000000001,0.43322754,-0.11622619999999999,10.62099394,76.14430236,0.0,0
19-02-2019 11:27:54,1550555874388,1.0229187,5.5872498,4.994568,0.14176941,0.12004089,-0.41769409999999996,10.62099394,76.14430236,0.0,0
19-02-2019 11:27:54,1550555874410,1.8944092000000001,1.3542938,10.668823,0.36334229999999995,0.45240784,-0.18333435,10.62099394,76.14430236,0.0,0
19-02-2019 11:27:54,1550555874451,-1.1893158000000001,7.107558999999999,13.963257,0.09063721,0.28089905,-0.54660034,10.62099394,76.14430236,0.0,0
19-02-2019 11:27:54,1550555874471,0.65901184,-1.3343964,7.168503,0.3367157,-0.049331665,-0.60517883,10.62099394,76.14430236,0.0,0
19-02-2019 11:27:54,1550555874509,-3.107071,5.6135864,0.17504883,0.5934448,0.10406494,-0.89494324,10.62099394,76.14430236,0.0,0
19-02-2019 11:27:54,1550555874532,-0.9906005999999999,-10.827392999999999,20.978256,-0.30244446,-0.2602539,-0.6105194,10.62099394,76.14430236,0.0,0
19-02-2019 11:27:54,1550555874570,4.3173523000000005,1.3207855,18.050156,0.916214,-0.35186768,-0.7724304,10.62099394,76.14430236,0.0,0
19-02-2019 11:27:54,1550555874595,2.7802734,4.3015594,18.536179,1.9868164000000001,0.13815308,-0.43048096,10.62099394,76.14430236,0.0,0
19-02-2019 11:27:54,1550555874631,0.24720764,-15.551163,34.938858,-0.9863434000000001,-0.107925415,-0.19718933,10.62099394,76.14430236,0.0,0
19-02-2019 11:27:54,1550555874654,-0.4303589,16.978851000000002,-25.138855,3.016922,-0.16438293,-0.16629028,10.62099394,76.14430236,0.0,-1
19-02-2019 11:27:54,1550555874723,-2.7335814999999997,-4.456436,20.583220999999998,-2.7823792000000003,-0.15161133,0.06060791,10.62137712,76.1442411,4.51,-1
19-02-2019 11:27:54,1550555874726,-0.006576538000000001,6.4515533,-10.94603,0.82992554,-0.26771545,0.010543823,10.62137712,76.1442411,4.51,0
19-02-2019 11:27:54,1550555874798,1.046875,5.558517500000001,24.753922,-1.3996582,-0.23043823,0.1341095,10.62137712,76.1442411,4.51,0
19-02-2019 11:27:54,1550555874803,0.0029907227,3.9113007000000004,-2.1976166,1.4318084999999998,-0.19102478,-0.029937744,10.62137712,76.1442411,4.51,0
19-02-2019 11:27:54,1550555874829,1.5975342,1.876236,16.42688,-1.0076447,-0.3028717,0.05101013,10.62137712,76.1442411,4.51,0
19-02-2019 11:27:54,1550555874836,-1.4024048,-0.070251465,18.205779999999997,0.44537354,-0.10153198,0.13304138,10.62137712,76.1442411,4.51,0
19-02-2019 11:27:54,1550555874872,1.3628997999999999,2.496338,14.59053,-0.073410034,-0.35507202,-0.05870056,10.62137712,76.1442411,4.51,0
19-02-2019 11:27:54,1550555874897,0.675766,-0.8196411,18.888123,0.20355225,-0.20700073,0.047821045,10.62137712,76.1442411,4.51,0
19-02-2019 11:27:54,1550555874934,-0.80145264,8.489014,14.157181,0.7095642,-0.17823792,0.09681702,10.62137712,76.1442411,4.51,0
19-02-2019 11:27:54,1550555874956,-0.025741577,1.2106476000000002,5.7894440000000005,0.43151855,-0.29541016,0.20547485,10.62137712,76.1442411,4.51,0
19-02-2019 11:27:54,1550555874994,0.6063385,7.1027830000000005,6.569961500000001,0.17585754,-0.11325073,0.29069520000000004,10.62137712,76.1442411,4.51,0
19-02-2019 11:27:55,1550555875016,-0.71765137,-3.4460754000000002,12.742203,-0.05529785,-0.22190857,0.24702454,10.62137712,76.1442411,4.51,0
19-02-2019 11:27:55,1550555875053,0.3717041,4.461975,-4.342819,0.7319336,-0.18035889,0.29389954,10.62137712,76.1442411,4.51,0
19-02-2019 11:27:55,1550555875078,-1.3545227,7.442749000000001,-11.032211,0.1407013,-0.181427,0.39723206,10.62137712,76.1442411,4.51,0
19-02-2019 11:27:55,1550555875118,6.491287000000001,-3.7190093999999996,18.912064,-1.6361542,-0.26239014,0.48245240000000006,10.62137712,76.1442411,4.51,0
19-02-2019 11:27:55,1550555875141,-1.146225,2.7572937,18.548141,-0.9778136999999999,0.22337341,0.34609985,10.62137712,76.1442411,4.51,0
19-02-2019 11:27:55,1550555875176,0.8625183000000001,13.9478,-11.125595,0.79371643,-0.17398071,0.17884827,10.62137712,76.1442411,4.51,0
19-02-2019 11:27:55,1550555875211,-3.798996,-1.281723,46.20836,-0.01802063,-0.14414978,0.19056702,10.62137712,76.1442411,4.51,0
19-02-2019 11:27:55,1550555875237,4.5400085,-0.6472473000000001,23.164170000000002,0.9620209000000001,-0.31140137,-0.028884887999999997,10.62137712,76.1442411,4.51,0
19-02-2019 11:27:55,1550555875262,4.994903599999999,10.950256,12.174789,1.1111603,0.10939026,-0.027816772000000003,10.62137712,76.1442411,4.51,0
19-02-2019 11:27:55,1550555875298,-1.3976135,-2.052658,12.919373,0.109817505,-0.010986328,-0.04272461,10.62137712,76.1442411,4.51,0
19-02-2019 11:27:55,1550555875316,2.4019928,-4.341507,18.777985,0.2344513,-0.037628174,-0.034210205,10.62137712,76.1442411,4.51,0
19-02-2019 11:27:55,1550555875356,0.50338745,13.641342000000002,-11.745682,2.3692474,-0.032287598,0.18630981,10.62137712,76.1442411,4.51,0
19-02-2019 11:27:55,1550555875380,2.4642334,11.7690735,-13.81427,2.3138428,-0.18888855,0.06272888,10.62137712,76.1442411,4.51,0
19-02-2019 11:27:55,1550555875418,-6.7151337,-20.035507,42.954636,-4.116089,0.38102722,0.52505493,10.62137712,76.1442411,4.51,-1
19-02-2019 11:27:55,1550555875444,3.2351685000000003,26.304276,-23.2594,0.28344727,-0.11645508,0.77326965,10.62137712,76.1442411,4.51,0
19-02-2019 11:27:55,1550555875478,3.2758636,18.999557,-13.725693,0.04057312,0.4023285,0.6177368000000001,10.62137712,76.1442411,4.51,0
19-02-2019 11:27:55,1550555875497,0.4339447,2.683075,14.023102,-3.054016,0.056121826,-0.15351868,10.62137712,76.1442411,4.51,-1
19-02-2019 11:27:55,1550555875538,1.7675171000000003,14.311722,-19.601059,1.5393982,0.1711731,0.24916077,10.62137712,76.1442411,4.51,0
19-02-2019 11:27:55,1550555875562,1.8465271,3.1212158,22.47464,-1.6191101,0.08274841,0.19589233,10.62137712,76.1442411,4.51,0
19-02-2019 11:27:55,1550555875602,-1.2587433000000001,3.3127593999999996,15.890579,-0.25663757,0.2531891,-0.0011749268,10.62137712,76.1442411,4.51,0
19-02-2019 11:27:55,1550555875622,3.3261413999999996,2.3335266,1.6235351999999998,-0.20443726,0.12643433,-0.08001709,10.62137712,76.1442411,4.51,0
19-02-2019 11:27:55,1550555875660,2.7994232000000006,8.998978,8.0208435,-0.24705505,0.20632935,-0.14073181,10.62137712,76.1442411,4.51,0
19-02-2019 11:27:55,1550555875685,2.0093384,-0.5203552,16.240143,-0.39405823,0.25532532,-0.20783997,10.62137712,76.1442411,4.51,0
19-02-2019 11:27:55,1550555875719,0.25439453,4.256073000000001,2.5668488,0.43898009999999993,0.18075562,-0.123687744,10.62137712,76.1442411,4.51,0
19-02-2019 11:27:55,1550555875742,0.2855072,5.706955000000001,14.382233,-0.4164276,0.09660339,-0.19612122,10.62137712,76.1442411,4.51,0
19-02-2019 11:27:55,1550555875782,-0.052078247,4.631958,2.995407,0.24935913,0.11790466,-0.06402588,10.62137712,76.1442411,4.51,0
19-02-2019 11:27:55,1550555875804,0.18255615,4.4739379999999995,4.879654,-0.46755979999999997,0.07316589,0.026519775,10.62137712,76.1442411,4.51,0
19-02-2019 11:27:55,1550555875840,1.4323273,11.283050999999999,-0.82333374,0.47946167,0.13601685,0.02758789,10.62137712,76.1442411,4.51,0
19-02-2019 11:27:55,1550555875866,-1.1893158000000001,-5.371017500000001,14.209854,-0.24491882,0.1285553,0.054214477999999997,10.62137712,76.1442411,4.51,0
19-02-2019 11:27:55,1550555875899,2.6581726000000003,3.3103637999999997,8.28421,0.6701355,0.09020996,0.0914917,10.62137712,76.1442411,4.51,0
19-02-2019 11:27:55,1550555875920,0.12988281,7.8521576,5.803817700000001,1.2592316000000001,0.20526123,-0.078948975,10.62137712,76.1442411,4.51,0
19-02-2019 11:27:55,1550555875962,0.1083374,0.34873962,17.861007999999998,-0.5463866999999999,0.17329407,-0.10983276,10.62137712,76.1442411,4.51,0
19-02-2019 11:27:55,1550555875980,1.6693573,8.431564,0.3210907,0.31541443,0.20419312,0.021194458,10.62137712,76.1442411,4.51,0
19-02-2019 11:27:56,1550555876020,0.44352722,5.790756,12.397446,-0.52615356,0.18714905,-0.44645690000000005,10.62137712,76.1442411,4.51,0
19-02-2019 11:27:56,1550555876041,0.9870148000000001,6.0349580000000005,7.3049774,-0.40789795,0.12962341,-0.43154907,10.62137712,76.1442411,4.51,0
19-02-2019 11:27:56,1550555876080,2.4690247000000003,4.3853607000000006,11.209914999999999,-0.45370483,0.07316589,-0.32714844,10.62137712,76.1442411,4.51,0
19-02-2019 11:27:56,1550555876101,0.75956726,4.986297599999999,10.383925999999999,-0.10110474,0.09553528,-0.42622375,10.62137712,76.1442411,4.51,0
19-02-2019 11:27:56,1550555876142,0.5680236999999999,3.0422057999999996,10.869949,-0.19059753,0.06890869,-0.39959717,10.62137712,76.1442411,4.51,0
19-02-2019 11:27:56,1550555876165,0.39085388,3.8083496,10.544327000000001,0.20036316,0.07209778,-0.2696228,10.62137712,76.1442411,4.51,0
19-02-2019 11:27:56,1550555876205,0.87927246,7.411621,8.415894,0.29197693,0.010314941,-0.14819336,10.62137712,76.1442411,4.51,0
19-02-2019 11:27:56,1550555876226,0.9247588999999999,0.13325499999999998,14.173935,0.025665282999999997,0.06997681,-0.18653870000000003,10.62137712,76.1442411,4.51,0
19-02-2019 11:27:56,1550555876264,0.9702606,7.5935820000000005,0.6251526,0.7138213999999999,0.03907776,-0.158844,10.62137712,76.1442411,4.51,0
19-02-2019 11:27:56,1550555876287,0.15144348,3.4588012999999997,8.2339325,-0.11175537,0.067840576,-0.15031433,10.62137712,76.1442411,4.51,0
19-02-2019 11:27:56,1550555876326,1.3150177,3.442047,7.525238000000001,-0.042526245,-0.035491943,-0.18440247,10.62137712,76.1442411,4.51,0
19-02-2019 11:27:56,1550555876349,0.7332306,6.078064,2.5836182,-0.1458435,0.020965576,-0.21743774,10.62137712,76.1442411,4.51,0
19-02-2019 11:27:56,1550555876385,0.28071594,5.675827,3.8190155,-0.3173523,-0.016311646000000003,-0.23660278,10.62137712,76.1442411,4.51,0
19-02-2019 11:27:56,1550555876408,3.4650116,3.5761108,4.374480999999999,-0.2949829,-0.06851196,-0.29519653,10.62137712,76.1442411,4.51,0
19-02-2019 11:27:56,1550555876449,-2.7431487999999997,3.3031769,22.304657000000002,-0.8212280000000001,0.0028533936,-0.44326782,10.62137712,76.1442411,4.51,0
19-02-2019 11:27:56,1550555876469,1.4275513000000002,2.2640991,14.348723999999999,-0.0627594,-0.031234741,-0.22062683,10.62137712,76.1442411,4.51,0
19-02-2019 11:27:56,1550555876506,-0.24839783,0.6575928000000001,29.434586,-0.38020325,-0.08236694,-0.13327026,10.62137712,76.1442411,4.51,0
19-02-2019 11:27:56,1550555876530,-1.8955993999999998,8.206497,7.3911743,0.355896,-0.11857605,0.0041503906,10.62137712,76.1442411,4.51,0
19-02-2019 11:27:56,1550555876566,-0.40881348,10.251144,-7.2781066999999995,0.8650818000000001,-0.11325073,0.028640747,10.62137712,76.1442411,4.51,0
19-02-2019 11:27:56,1550555876588,1.1043243,2.5968932999999996,20.185776,-0.4633026,-0.18463135,0.03929138,10.62137712,76.1442411,4.51,0
19-02-2019 11:27:56,1550555876632,1.6669616999999999,2.6375884999999997,1.1111754999999999,0.9737396,-0.21765137,0.0041503906,10.62137712,76.1442411,4.51,0
19-02-2019 11:27:56,1550555876650,2.169754,6.690979,12.588974,0.059753417999999996,-0.016311646000000003,0.05101013,10.62137712,76.1442411,4.51,0
19-02-2019 11:27:56,1550555876687,-0.36091614,19.91655,-12.710556,1.9846802,-0.10899353,0.08830261,10.62137712,76.1442411,4.51,0
19-02-2019 11:27:56,1550555876713,1.6214752000000001,-1.2146758999999998,14.954452499999999,-0.58473206,-0.15905762,-0.029937744,10.62137712,76.1442411,4.51,0
19-02-2019 11:27:56,1550555876755,0.8242035,4.1650849999999995,2.164627,0.65948486,-0.08129883,0.012664795,10.62137712,76.1442411,4.51,0
19-02-2019 11:27:56,1550555876772,1.0851746000000002,-2.5123444,20.908829,0.22698975,-0.077041626,0.049957275,10.62137712,76.1442411,4.51,0
19-02-2019 11:27:56,1550555876808,1.3509368999999998,14.328476,4.36969,1.2411193999999999,-0.17823792,-0.04698181,10.62137712,76.1442411,4.51,0
19-02-2019 11:27:56,1550555876835,-2.4606323,-1.4229736000000002,21.385284,0.90023804,-0.10580444,-0.025680542,10.62137712,76.1442411,4.51,0
19-02-2019 11:27:56,1550555876868,2.7611237,2.2305756000000003,21.672577,-0.06062317,-0.28689575,0.052078247,10.62137712,76.1442411,4.51,0
19-02-2019 11:27:56,1550555876890,-1.2635345,6.312683,12.708694,1.6576384999999998,-0.13882446,0.03503418,10.62137712,76.1442411,4.51,0
19-02-2019 11:27:56,1550555876932,-2.3744507,-0.9154053,21.641448999999998,-0.93307495,-0.098342896,0.12557983,10.62137712,76.1442411,4.51,0
19-02-2019 11:27:56,1550555876952,2.3995972,4.924057,6.7160034,0.05229187,-0.3263092,0.10108948,10.62137712,76.1442411,4.51,0
19-02-2019 11:27:56,1550555876989,-1.1725616,1.9337006,18.533783,-0.47181702,0.018844603999999997,0.07019043,10.62137712,76.1442411,4.51,0
19-02-2019 11:27:57,1550555877016,1.3892365,6.8849029999999996,0.11279297,0.21315002,-0.16651917,0.13517761,10.62137712,76.1442411,4.51,0
19-02-2019 11:27:57,1550555877051,0.65901184,4.6774445,3.7304382000000005,-0.22254944,-0.016311646000000003,0.22998047,10.62137712,76.1442411,4.51,0
19-02-2019 11:27:57,1550555877071,-1.2276306000000001,4.370987,9.553131,0.05441284,-0.09513855,0.104278564,10.62137712,76.1442411,4.51,0
19-02-2019 11:27:57,1550555877110,0.8553314000000001,6.209732,-1.3093567,0.5348510999999999,-0.074905396,0.16394043,10.62137712,76.1442411,4.51,0
19-02-2019 11:27:57,1550555877133,0.59436035,5.474716,8.9066925,0.06826782,-0.03868103,0.17991638,10.62137712,76.1442411,4.51,0
19-02-2019 11:27:57,1550555877170,0.33338928,3.9544067000000003,11.200348,0.04057312,-0.030166626000000002,0.069122314,10.62137712,76.1442411,4.51,0
19-02-2019 11:27:57,1550555877196,1.9159698,4.5960540000000005,3.2420197,0.26960754,-0.016311646000000003,0.03929138,10.62137712,76.1442411,4.51,0
19-02-2019 11:27:57,1550555877232,-0.2747345,8.884064,8.399124,0.07252502400000001,0.03907776,0.069122314,10.62137712,76.1442411,4.51,0
19-02-2019 11:27:57,1550555877254,0.6781616,-0.14926147,6.457428,0.09384155,-0.09408569,0.01373291,10.62137712,76.1442411,4.51,0
19-02-2019 11:27:57,1550555877291,3.8265379999999998,6.1403045999999994,16.374207000000002,-0.0041656494,-0.074905396,0.104278564,10.62137712,76.1442411,4.51,0
19-02-2019 11:27:57,1550555877315,-1.1222839,4.7923737,9.658478,0.20782470000000003,0.09020996,0.1894989,10.62137712,76.1442411,4.51,0
19-02-2019 11:27:57,1550555877352,2.8161774,4.646332,9.584259,-0.17460632,-0.100479126,0.0914917,10.62137712,76.1442411,4.51,0
19-02-2019 11:27:57,1550555877373,0.20172119,6.590423599999999,7.824524,-0.42921448,0.07209778,0.044631958,10.62137712,76.1442411,4.51,0
19-02-2019 11:27:57,1550555877412,1.3413544,6.513808999999999,6.9290924,-0.23106384,-0.0045928955,0.1383667,10.62137712,76.1442411,4.51,0
19-02-2019 11:27:57,1550555877436,2.1793213,3.7939910000000006,9.330475,-0.44732666,0.07102966,0.04675293,10.62137712,76.1442411,4.51,0
19-02-2019 11:27:57,1550555877472,0.25439453,4.8163147,7.752685499999999,-0.03186035,0.08488464,0.01373291,10.62137712,76.1442411,4.51,0
19-02-2019 11:27:57,1550555877495,2.1410217,5.663864,4.412781,-0.16183472,0.065704346,0.049957275,10.62137712,76.1442411,4.51,0
19-02-2019 11:27:57,1550555877532,1.0899658,12.396362,4.4199677,0.3047638,0.12643433,-0.008636475,10.62137712,76.1442411,4.51,0
19-02-2019 11:27:57,1550555877554,-0.56204224,0.47802734,9.873961999999999,-0.8435974,0.059310913,0.036102295,10.62137712,76.1442411,4.51,0
19-02-2019 11:27:57,1550555877597,2.1912993999999997,8.43396,-11.254868,0.7883911,-0.039749146,0.0030822754,10.62137712,76.1442411,4.51,0
19-02-2019 11:27:57,1550555877615,-1.20607,6.102005,11.434982000000002,-0.8883361999999999,0.11364746,0.031845093,10.62137712,76.1442411,4.51,0
19-02-2019 11:27:57,1550555877653,-0.7487793,5.711746,1.8581696,0.048034667999999996,-0.031234741,-0.053375244,10.62137712,76.1442411,4.51,0
19-02-2019 11:27:57,1550555877676,2.8281555,5.161072,11.1788025,-0.43560790000000005,-0.057861328,0.063797,10.62137712,76.1442411,4.51,0
19-02-2019 11:27:57,1550555877715,-0.27952576,4.9575653,18.758835,-0.263031,0.10618591,-0.045928955,10.62137712,76.1442411,4.51,0
19-02-2019 11:27:57,1550555877737,2.1481934,4.529007,1.9754791,0.31860352,0.06037903,-0.08427429,10.62137712,76.1442411,4.51,0
19-02-2019 11:27:57,1550555877776,1.9039917000000002,6.817871,16.144363000000002,-0.22361755,0.08062744,-0.053375244,10.62137712,76.1442411,4.51,0
19-02-2019 11:27:57,1550555877798,0.45071409999999995,-1.949707,18.473923000000003,-0.025482177999999998,0.11683655,-0.060836792,10.62137712,76.1442411,4.51,0
19-02-2019 11:27:57,1550555877836,4.2239685,9.99736,0.5413513000000001,1.1527100000000001,-0.077041626,0.04675293,10.62137712,76.1442411,4.51,0
19-02-2019 11:27:57,1550555877858,2.7108307000000003,3.0493927000000003,10.4557495,0.057617188,0.21910095,-0.17375183,10.62137712,76.1442411,4.51,0
19-02-2019 11:27:57,1550555877901,-0.025741577,-0.59458923,11.600174,0.011810303000000001,-0.012054443,-0.040603638,10.62137712,76.1442411,4.51,0
19-02-2019 11:27:57,1550555877920,0.7475891,12.671692,-1.393158,0.32818604,0.087020874,0.040359497,10.62137712,76.1442411,4.51,0
19-02-2019 11:27:57,1550555877956,-1.304245,7.7252655,1.8198546999999998,-0.14797974,-0.016311646000000003,-0.10983276,10.62137712,76.1442411,4.51,0
19-02-2019 11:27:57,1550555877979,3.9917297,4.291976999999999,6.8979645000000005,-0.9362792999999999,-0.056793212999999995,-0.060836792,10.62137712,76.1442411,4.51,0
19-02-2019 11:27:58,1550555878017,0.043701172,14.704360999999999,-4.2805634,0.88212585,0.23402405,-0.09385681,10.62137712,76.1442411,4.51,0
19-02-2019 11:27:58,1550555878040,-0.6865387,1.7900391,15.864243,-0.9160309000000001,-0.044006348,-0.07788086,10.62137712,76.1442411,4.51,0
19-02-2019 11:27:58,1550555878082,3.4290924,7.1746063,3.0983582000000003,0.5540314000000001,-0.11112976,0.15434265,10.62137712,76.1442411,4.51,0
19-02-2019 11:27:58,1550555878102,2.047638,7.634292599999999,4.350525,-0.30137634,0.16584778,0.14582825,10.62137712,76.1442411,4.51,0
19-02-2019 11:27:58,1550555878140,-3.3081818,8.041306,12.466873,-0.06489563,0.18289185,-0.25471497,10.62137712,76.1442411,4.51,0
19-02-2019 11:27:58,1550555878160,0.0077819824,3.477951,1.1925812,-0.14797974,-0.26664734,-0.041656494,10.62137712,76.1442411,4.51,0
19-02-2019 11:27:58,1550555878198,4.7099915,11.170532000000001,4.5300902999999995,0.25042725,0.006057739300000001,0.0872345,10.62137712,76.1442411,4.51,0
19-02-2019 11:27:58,1550555878221,1.0492553999999998,1.6104736000000002,15.406951999999999,-0.70191956,0.07209778,-0.07469177,10.62137712,76.1442411,4.51,0
19-02-2019 11:27:58,1550555878259,-1.9339142,9.125869999999999,-1.8791808999999997,0.7191466999999999,0.17436218,-0.27815247,10.62137712,76.1442411,4.51,0
19-02-2019 11:27:58,1550555878281,1.2384033,3.3367004000000002,12.881072999999999,-0.9543915000000001,-0.107925415,-0.14712524,10.62137712,76.1442411,4.51,0
19-02-2019 11:27:58,1550555878319,2.260727,7.792312599999999,8.870789,0.2536316,0.04121399,0.1660614,10.62137712,76.1442411,4.51,0
19-02-2019 11:27:58,1550555878343,0.8601226999999999,9.130661,5.0568237,-0.39938354,0.11683655,0.069122314,10.62137712,76.1442411,4.51,0
19-02-2019 11:27:58,1550555878382,1.2575531,3.2816315,5.030487,-0.11602783,0.032684326,-0.05870056,10.62137712,76.1442411,4.51,0
19-02-2019 11:27:58,1550555878401,-0.9618683000000001,10.449875,-1.6349791999999999,-0.6603699000000001,0.091278076,0.005203247,10.62137712,76.1442411,4.51,0
19-02-2019 11:27:58,1550555878440,0.33100890000000005,8.4483185,-0.8712158000000001,-0.26089478,-0.057861328,-0.16949463,10.62137712,76.1442411,4.51,0
19-02-2019 11:27:58,1550555878462,1.9303284,3.1595306,8.250687,-0.53041077,-0.012054443,-0.08427429,10.62137712,76.1442411,4.51,0
19-02-2019 11:27:58,1550555878501,-1.1390381,2.8482819,20.516174,-0.5165558,0.12110901,0.0009460449,10.62137712,76.1442411,4.51,0
19-02-2019 11:27:58,1550555878523,-3.24115,6.729278599999999,1.1111754999999999,0.117263794,-0.013122558999999999,-0.04486084,10.62137712,76.1442411,4.51,0
19-02-2019 11:27:58,1550555878566,2.552826,6.5880279999999996,10.43898,-0.27793884,-0.16970825,-0.19612122,10.62137712,76.1442411,4.51,0
19-02-2019 11:27:58,1550555878585,0.23043823,6.3533935999999995,9.648895,-0.5080414000000001,-0.047210693,-0.15138245,10.62137712,76.1442411,4.51,0
19-02-2019 11:27:58,1550555878622,1.3868408,6.1355133,13.362305,-0.0393219,-0.025909424,-0.09918213,10.62137712,76.1442411,4.51,0
19-02-2019 11:27:58,1550555878644,-0.14544678,5.371765,5.552414,0.10128784,-0.018447876000000002,-0.2919922,10.62137712,76.1442411,4.51,0
19-02-2019 11:27:58,1550555878681,2.0691986,-1.8036499,16.544204999999998,-0.28753662,-0.181427,-0.19612122,10.62137712,76.1442411,4.51,0
19-02-2019 11:27:58,1550555878705,4.561554,18.508759,-2.5232238999999996,0.83099365,-0.057861328,-0.25152588,10.62137712,76.1442411,4.51,0
19-02-2019 11:27:58,1550555878744,-8.398254,6.9136353,-2.7913666,-0.32695007,0.16903687,-0.09385681,10.62137712,76.1442411,4.51,0
19-02-2019 11:27:58,1550555878767,3.3477019999999995,3.8993377999999996,7.3049774,-1.0747528,-0.5020752,-0.12049866,10.62137712,76.1442411,4.51,0
19-02-2019 11:27:58,1550555878803,1.8345642,7.629501299999999,8.454193,0.12898254,0.032684326,0.21400452,10.62137712,76.1442411,4.51,0
19-02-2019 11:27:58,1550555878826,-1.2467803999999998,8.872086,-0.33251953,-0.009490967,-0.04081726,0.15008545,10.62137712,76.1442411,4.51,0
19-02-2019 11:27:58,1550555878866,0.5967560000000001,1.5913239,12.253784,-0.67422485,-0.21339417,-0.040603638,10.62137712,76.1442411,4.51,0
19-02-2019 11:27:58,1550555878886,-0.11911011,8.572815,8.437439,-0.2395935,-0.16545105,0.01373291,10.62137712,76.1442411,4.51,0
19-02-2019 11:27:58,1550555878925,0.61351013,4.916869999999999,10.393494,-0.35890198,-0.16758728,0.06272888,10.62137712,76.1442411,4.51,0
19-02-2019 11:27:58,1550555878949,-0.557251,5.01503,6.9075317,0.2344513,-0.11752319,-0.015029907,10.62137712,76.1442411,4.51,0
19-02-2019 11:27:58,1550555878987,1.1809386999999998,1.5961151000000002,9.454971,-0.26835632,-0.17184448,0.07019043,10.62137712,76.1442411,4.51,0
19-02-2019 11:27:59,1550555879007,-0.86849976,8.493805,9.474121,0.28771973,-0.10473633,0.11706543,10.62137712,76.1442411,4.51,0
19-02-2019 11:27:59,1550555879048,0.7188568000000001,5.4866943,8.265044999999999,-0.108566284,-0.15586853,0.14689636,10.62137712,76.1442411,4.51,0
19-02-2019 11:27:59,1550555879066,1.3844452,1.5027313,14.585739000000002,-0.2949829,-0.07383728,0.2363739,10.62137712,76.1442411,4.51,0
19-02-2019 11:27:59,1550555879105,0.68055725,10.035675,2.2819366000000003,0.75323486,-0.031234741,0.23530579,10.62137712,76.1442411,4.51,0
19-02-2019 11:27:59,1550555879129,0.010177611999999999,4.347046,7.6329803,0.022460938,-0.057861328,0.19482422,10.62137712,76.1442411,4.51,0
19-02-2019 11:27:59,1550555879166,-0.44711304,0.5019684,8.995285,-0.21401978,-0.024841309,0.2555542,10.62137712,76.1442411,4.51,0
19-02-2019 11:27:59,1550555879189,1.1163025,4.0334167,3.5125580000000003,0.20355225,-0.107925415,0.25021362,10.62137712,76.1442411,4.51,0
19-02-2019 11:27:59,1550555879226,0.055664062,4.2105865,12.644043,-0.263031,0.04121399,0.14901733,10.62137712,76.1442411,4.51,0
19-02-2019 11:27:59,1550555879249,-1.3712768999999998,4.378174,-0.6916504,0.4347229,0.022033691,0.19375610000000001,10.62137712,76.1442411,4.51,0
19-02-2019 11:27:59,1550555879287,0.383667,2.1204376,-0.92388916,-0.5911255,-0.02909851,0.24702454,10.62137712,76.1442411,4.51,0
19-02-2019 11:27:59,1550555879311,-1.7878723,2.7381439999999997,37.874146,-0.55810547,0.04866028,0.25128174,10.62137712,76.1442411,4.51,0
19-02-2019 11:27:59,1550555879348,2.284668,3.4994965,20.813064999999998,0.43791199999999997,-0.063186646,-0.13433838,10.62137712,76.1442411,4.51,0
19-02-2019 11:27:59,1550555879369,2.4474792,9.291077,9.409485,0.05229187,0.053985596,-0.10557556,10.62137712,76.1442411,4.51,0
19-02-2019 11:27:59,1550555879408,1.9255371,6.2456512,-0.36125183,0.30581665,0.027359009,-0.09278869999999999,10.62137712,76.1442411,4.51,0
19-02-2019 11:27:59,1550555879431,2.1625671000000004,6.315078700000001,6.397567700000001,-0.033996582000000004,0.15945435,-0.15458679,10.62137712,76.1442411,4.51,0
19-02-2019 11:27:59,1550555879468,0.6781616,6.015808,2.7942963,0.12365723,0.019897461,0.08830261,10.62137712,76.1442411,4.51,0
19-02-2019 11:27:59,1550555879490,2.9406738,-4.82753,12.292099,-0.11602783,0.06997681,0.06486511,10.62137712,76.1442411,4.51,0
19-02-2019 11:27:59,1550555879531,-0.45429993,-1.7797089,13.450897,0.45176697,0.09553528,0.042495727999999997,10.62137712,76.1442411,4.51,0
19-02-2019 11:27:59,1550555879551,-1.1605835,22.662689999999998,-20.982513,1.4957274999999999,-0.01524353,-0.020355225,10.62137712,76.1442411,4.51,0
19-02-2019 11:27:59,1550555879588,2.8999786,-5.423691000000001,3.5221405,-2.395691,0.008178711,0.25021362,10.62137712,76.1442411,4.51,0
19-02-2019 11:27:59,1550555879613,5.770630000000001,5.8913116,0.10321045,-2.0793,0.07102966,0.080841064,10.62137712,76.1442411,4.51,0
19-02-2019 11:27:59,1550555879651,-3.7151947,11.350098,38.472702000000005,-0.86917114,0.4023285,-0.08639526,10.62137712,76.1442411,4.51,0
19-02-2019 11:27:59,1550555879672,-3.123825,4.26326,40.471848,-0.7370758000000001,0.01777649,0.1341095,10.62137712,76.1442411,4.51,0
19-02-2019 11:27:59,1550555879709,3.534439,13.313339000000001,-11.159103,2.73143,-0.11538696,-0.22702026,10.62137712,76.1442411,4.51,-1
19-02-2019 11:27:59,1550555879737,0.72125244,6.7197113,-11.451202,-0.15116882,0.10832214,-0.47735596,10.62137712,76.1442411,4.51,0
19-02-2019 11:27:59,1550555879770,2.7682952999999997,6.544922,1.9084473000000002,-0.21401978,0.010314941,0.09788513,10.62137712,76.1442411,4.51,0
19-02-2019 11:27:59,1550555879792,0.29508972,-2.174759,7.5779114000000005,-0.42601013,0.075302124,0.21080017,10.62137712,76.1442411,4.51,0
19-02-2019 11:27:59,1550555879834,1.7579498,-4.3391113,14.118881,-0.06701660000000001,-0.022705077999999997,-0.0054473877,10.62137712,76.1442411,4.51,0
19-02-2019 11:27:59,1550555879853,1.075592,6.334244,5.9043730000000005,0.7084961,0.059310913,-0.09278869999999999,10.62137712,76.1442411,4.51,0
19-02-2019 11:27:59,1550555879891,4.927871700000001,26.845367,-20.656906,1.9878692999999998,-0.119644165,0.055282593,10.62137712,76.1442411,4.51,0
19-02-2019 11:27:59,1550555879915,-2.5013428,-14.366028,36.82788,-0.41003418,0.35226440000000003,0.110672,10.62137712,76.1442411,4.51,0
19-02-2019 11:27:59,1550555879953,2.0213012999999997,-10.892044,29.87033,-0.5698241999999999,-0.006729125999999999,0.09895325,10.62137712,76.1442411,4.51,0
19-02-2019 11:27:59,1550555879974,0.95588684,12.401138000000001,15.940857000000001,1.5223541,-0.01524353,-0.17695618,10.62137712,76.1442411,4.51,0
19-02-2019 11:28:00,1550555880014,-2.0057373,10.011733999999999,6.687271000000001,0.39103699999999997,0.17224121,-0.12901306,10.62137712,76.1442411,4.51,0
19-02-2019 11:28:00,1550555880035,1.7794952000000002,6.5616913,3.088791,-0.13626099,-0.2006073,-0.17907715,10.62137712,76.1442411,4.51,0
19-02-2019 11:28:00,1550555880072,1.9375153000000003,9.133057,3.6490326,0.06187439,0.042266846,-0.07574463,10.62137712,76.1442411,4.51,0
19-02-2019 11:28:00,1550555880096,-0.7846985,2.082138,7.5779114000000005,-0.7466583000000001,-0.039749146,-0.114105225,10.62137712,76.1442411,4.51,0
19-02-2019 11:28:00,1550555880133,1.6190796,0.23860168,11.765381,-0.30563354,-0.11218262,-0.09278869999999999,10.62137712,76.1442411,4.51,0
19-02-2019 11:28:00,1550555880157,0.036514282,7.1171417,-4.515197799999999,0.27386475,0.0007324219,-0.07469177,10.62137712,76.1442411,4.51,0
19-02-2019 11:28:00,1550555880195,0.35494995,2.6112518,11.281738,-0.7466583000000001,-0.037628174,-0.06616211,10.62137712,76.1442411,4.51,0
19-02-2019 11:28:00,1550555880218,-0.028121947999999997,2.6280212000000005,11.080627,0.03843689,0.044403076,0.040359497,10.62137712,76.1442411,4.51,0
19-02-2019 11:28:00,1550555880254,0.8409728999999999,4.457184,7.3672333,0.032043457000000004,-0.12284851,-0.08106995,10.62137712,76.1442411,4.51,0
19-02-2019 11:28:00,1550555880276,0.56562805,2.8937682999999996,14.621657999999998,0.14816284,-0.02696228,-0.025680542,10.62137712,76.1442411,4.51,0
19-02-2019 11:28:00,1550555880315,1.2671356000000003,9.767517,1.8342285,0.6520385999999999,-0.09301758,0.020126343,10.62137712,76.1442411,4.51,0
19-02-2019 11:28:00,1550555880340,0.6566162,4.0286254999999995,12.313644,-0.11921692,-0.003540039,0.014801025,10.62137712,76.1442411,4.51,0
19-02-2019 11:28:00,1550555880376,0.44113159999999996,3.2792358,5.959442,-0.0435791,-0.08236694,0.01373291,10.62137712,76.1442411,4.51,0
19-02-2019 11:28:00,1550555880399,1.9853973000000003,0.7030791999999999,14.013535000000001,-0.30883790000000005,-0.04827881,0.055282593,10.62137712,76.1442411,4.51,0
19-02-2019 11:28:00,1550555880436,0.44592285,5.192199700000001,8.645736999999999,0.28665159999999995,-0.053604125999999995,0.03503418,10.62137712,76.1442411,4.51,0
19-02-2019 11:28:00,1550555880458,1.3652954,5.5225983,16.69983,0.25468445,-0.056793212999999995,0.03929138,10.62137712,76.1442411,4.51,0
19-02-2019 11:28:00,1550555880498,0.3214264,-5.2273559999999994,19.690185999999997,-0.36209106,-0.03868103,0.07658386,10.62137712,76.1442411,4.51,0
19-02-2019 11:28:00,1550555880521,1.5328979999999999,11.338119500000001,2.061676,0.87467957,-0.06744385,0.07444763,10.62137712,76.1442411,4.51,0
19-02-2019 11:28:00,1550555880556,-0.77511597,7.323044,6.883590700000001,-0.12879944,0.003921509,0.049957275,10.62137712,76.1442411,4.51,0
19-02-2019 11:28:00,1550555880580,-0.9642639000000001,1.9121398999999997,-0.10029602,0.531662,-0.055725098,0.055282593,10.62137712,76.1442411,4.51,0
19-02-2019 11:28:00,1550555880623,2.7467499,0.8515166999999999,24.823349,-0.64546204,-0.15905762,0.02758789,10.62137712,76.1442411,4.51,0
19-02-2019 11:28:00,1550555880639,0.53689575,5.4555664,-1.2614746000000001,1.0334014999999999,0.01777649,0.0872345,10.62137712,76.1442411,4.51,0
19-02-2019 11:28:00,1550555880677,2.3756561,0.9640503,14.51152,-0.8052521,-0.006729125999999999,0.16712952,10.62137712,76.1442411,4.51,0
19-02-2019 11:28:00,1550555880702,2.387619,6.5856323,4.355316,0.1375122,0.08595276,0.24276733,10.62137712,76.1442411,4.51,0
19-02-2019 11:28:00,1550555880737,-1.0408783000000001,-4.51149,18.943192,-0.9735565,0.17756653,0.13197327,10.62137712,76.1442411,4.51,0
19-02-2019 11:28:00,1550555880759,0.80744934,14.472122,-0.68447876,0.11407471,-0.1729126,0.12878418,10.62137712,76.1442411,4.51,0
19-02-2019 11:28:00,1550555880799,5.6197968000000005,-2.4740295,24.84729,-1.1439972,-0.086624146,-0.17481995,10.62137712,76.1442411,4.51,0
19-02-2019 11:28:00,1550555880821,-1.9674377,8.311844,8.947403,0.36761475,0.39274597,-0.37295532,10.62137712,76.1442411,4.51,0
19-02-2019 11:28:00,1550555880858,1.6669616999999999,9.2743225,11.650452,0.46134949999999997,-0.08129883,-0.013961791999999999,10.62137712,76.1442411,4.51,0
19-02-2019 11:28:00,1550555880881,0.52493286,-0.38389587,16.726166,0.7425841999999999,-0.0024719238,-0.13433838,10.62137712,76.1442411,4.51,0
19-02-2019 11:28:00,1550555880918,-0.07122803,13.447417999999999,-7.9341125,2.1370087000000004,0.0071258545,-0.11836243,10.62137712,76.1442411,4.51,0
19-02-2019 11:28:00,1550555880941,2.9574432,-0.32403564,11.217102,0.20355225,-0.037628174,-0.13114929,10.62137712,76.1442411,4.51,0
19-02-2019 11:28:00,1550555880981,-0.8373718000000001,8.35495,-2.0755005,1.1282043,0.110458374,0.01586914,10.62137712,76.1442411,4.51,0
19-02-2019 11:28:01,1550555881002,-0.8158264000000001,8.048492,11.9856415,-0.10217285,-0.056793212999999995,0.10748291,10.62137712,76.1442411,4.51,0
19-02-2019 11:28:01,1550555881040,3.9390563999999997,13.006882000000001,-4.934189,0.6435088999999999,-0.021636963,0.082977295,10.62137712,76.1442411,4.51,0
19-02-2019 11:28:01,1550555881061,2.33255,7.279953,11.403853999999999,-0.7221526999999999,0.20951843,0.07337952,10.62137712,76.1442411,4.51,0
19-02-2019 11:28:01,1550555881099,-1.4766235,4.2105865,-3.9094696000000004,-0.11814880000000001,0.296875,0.019058228,10.62137712,76.1442411,4.51,0
19-02-2019 11:28:01,1550555881124,0.07720947,8.860123,10.132522999999999,-1.0790253,0.15412903,-0.017166138,10.62137712,76.1442411,4.51,0
19-02-2019 11:28:01,1550555881160,0.043701172,4.904892,6.888382000000001,-0.7264252,0.10511780000000001,-0.15563965,10.62137712,76.1442411,4.51,0
19-02-2019 11:28:01,1550555881182,1.3078308,0.2816925,13.905792000000002,-0.6859436,0.02949524,-0.22914124,10.62137712,76.1442411,4.51,0
19-02-2019 11:28:01,1550555881221,1.2838898,6.181015,6.325744599999999,0.08531189,0.16371155,-0.102386475,10.62137712,76.1442411,4.51,0
19-02-2019 11:28:01,1550555881246,-0.5452728,1.1172790000000001,13.898604999999998,-0.09045410000000001,0.08169556,-0.158844,10.62137712,76.1442411,4.51,0
19-02-2019 11:28:01,1550555881282,1.3557128999999999,4.586471599999999,11.097397,0.11621094,-0.006729125999999999,-0.2642975,10.62137712,76.1442411,4.51,0
19-02-2019 11:28:01,1550555881304,-0.636261,-1.8491363999999997,10.699950999999999,0.5348510999999999,0.038009644,-0.20783997,10.62137712,76.1442411,4.51,0
19-02-2019 11:28:01,1550555881342,1.8393555,-1.1500397,18.605605999999998,-0.08193969999999999,-0.01737976,-0.1673584,10.62137712,76.1442411,4.51,0
19-02-2019 11:28:01,1550555881369,-0.38008118,7.081222500000001,2.5261536,1.1431274,0.04333496,-0.16842651,10.62137712,76.1442411,4.51,0
19-02-2019 11:28:01,1550555881402,-0.020950317,0.38943479999999997,14.104507,-0.46437073,-0.01524353,-0.2184906,10.62137712,76.1442411,4.51,0
19-02-2019 11:28:01,1550555881425,0.48661804,2.9440459999999997,7.721572999999999,0.1407013,-0.051467896,-0.15138245,10.62137712,76.1442411,4.51,0
19-02-2019 11:28:01,1550555881468,0.9008179000000001,6.5353546,7.393554700000001,0.27812195,0.012451172,-0.088531494,10.62137712,76.1442411,4.51,0
19-02-2019 11:28:01,1550555881486,0.7523804000000001,4.651108,12.469269,0.08317566,0.042266846,-0.13114929,10.62137712,76.1442411,4.51,0
19-02-2019 11:28:01,1550555881523,0.4698639,3.0517882999999997,8.947403,0.13430786,0.011383057,-0.09811401,10.62137712,76.1442411,4.51,0
19-02-2019 11:28:01,1550555881547,-0.45429993,9.214462,7.743118300000001,0.15348816,-0.03656006,-0.060836792,10.62137712,76.1442411,4.51,0
19-02-2019 11:28:01,1550555881585,0.96307373,8.797867,6.9290924,0.14176941,-0.045074462999999995,-0.11836243,10.62137712,76.1442411,4.51,0
19-02-2019 11:28:01,1550555881607,1.4251556,6.056503299999999,8.265044999999999,-0.10643005,-0.020584106,-0.18547058,10.62137712,76.1442411,4.51,0
19-02-2019 11:28:01,1550555881648,0.6254883000000001,7.402054,3.9483032,0.20994568,-0.007797241,-0.10343933,10.62137712,76.1442411,4.51,0
19-02-2019 11:28:01,1550555881672,1.0157471,7.6390839999999995,5.631424,-0.24917603,-0.01737976,-0.15563965,10.62137712,76.1442411,4.51,0
19-02-2019 11:28:01,1550555881705,0.28311157,7.442749000000001,1.4631195,-0.049972534000000006,-0.007797241,-0.17588806,10.62137712,76.1442411,4.51,0
19-02-2019 11:28:01,1550555881728,-0.059249878,3.2624817000000004,8.267441,-0.5389252,-0.05253601,-0.13859558,10.62137712,76.1442411,4.51,0
19-02-2019 11:28:01,1550555881766,1.2264403999999998,4.789978,7.264282000000001,-0.10217285,-0.08769226,-0.15351868,10.62137712,76.1442411,4.51,0
19-02-2019 11:28:01,1550555881789,0.034118652,4.5625305,12.134079,-0.063827515,-0.035491943,-0.12582397,10.62137712,76.1442411,4.51,0
19-02-2019 11:28:01,1550555881825,0.9798279000000001,4.133972,6.708816499999999,-0.054229735999999994,-0.107925415,-0.057647705,10.62137712,76.1442411,4.51,0
19-02-2019 11:28:01,1550555881849,0.46507263,3.7844086000000003,10.716721000000001,-0.2534485,-0.06211853,-0.114105225,10.62137712,76.1442411,4.51,0
19-02-2019 11:28:01,1550555881886,0.12510681,5.8194885,9.88353,0.049087524,-0.09194946,-0.10450745,10.62137712,76.1442411,4.51,0
19-02-2019 11:28:01,1550555881911,0.67337036,3.078125,7.843673700000001,-0.042526245,-0.12922668,-0.08213806,10.62137712,76.1442411,4.51,0
19-02-2019 11:28:01,1550555881947,-0.11911011,6.350998000000001,7.6856537,0.19610596,-0.12071228,-0.08213806,10.62137712,76.1442411,4.51,0
19-02-2019 11:28:01,1550555881969,0.29748535,4.789978,9.138931,0.004348755,-0.17398071,-0.065093994,10.62137712,76.1442411,4.51,0
19-02-2019 11:28:02,1550555882008,0.041305542,7.0213776,1.1877898999999998,0.34310913,-0.11431885,-0.05230713,10.62137712,76.1442411,4.51,0
19-02-2019 11:28:02,1550555882030,-0.13586426,3.351059,9.761429,-0.33760070000000003,-0.17503357,-0.040603638,10.62137712,76.1442411,4.51,0
19-02-2019 11:28:02,1550555882067,0.47705078,3.7485046000000004,5.820572,0.025665282999999997,-0.15480042,0.110672,10.62137712,76.1442411,4.51,0
19-02-2019 11:28:02,1550555882089,1.1139069,6.590423599999999,8.8229065,0.14390564,-0.110061646,0.1341095,10.62137712,76.1442411,4.51,0
19-02-2019 11:28:02,1550555882129,-1.0552368,5.9367980000000005,6.9027557,-0.013763428000000001,-0.09301758,0.021194458,10.62137712,76.1442411,4.51,0
19-02-2019 11:28:02,1550555882149,1.4083861999999998,5.6279449999999995,11.056686000000001,-0.22041321,-0.17398071,0.071258545,10.62137712,76.1442411,4.51,0
19-02-2019 11:28:02,1550555882188,-0.10713196,7.325439500000001,6.5077057,0.14816284,-0.05039978,0.14794922,10.62137712,76.1442411,4.51,0
19-02-2019 11:28:02,1550555882210,1.0420837,5.445983999999999,6.7375490000000005,-0.37808228,-0.086624146,0.14369202,10.62137712,76.1442411,4.51,0
19-02-2019 11:28:02,1550555882250,0.2855072,6.173828,4.7551575,-0.033996582000000004,-0.04827881,0.22465515,10.62137712,76.1442411,4.51,0
19-02-2019 11:28:02,1550555882270,1.7459717000000001,3.952011,10.156464,-0.3642273,-0.014190673999999999,0.20867919999999998,10.62137712,76.1442411,4.51,0
19-02-2019 11:28:02,1550555882309,-0.6482239000000001,7.655838,2.6554412999999997,0.19929504,0.040145874,0.1149292,10.62137712,76.1442411,4.51,0
19-02-2019 11:28:02,1550555882332,-0.09756469999999999,1.8881988999999997,24.519287,-0.30458070000000004,0.013519287,0.13517761,10.62137712,76.1442411,4.51,0
19-02-2019 11:28:02,1550555882369,2.7515411,2.3359222,13.944092000000001,0.3644104,-0.1026001,0.15541077,10.62137712,76.1442411,4.51,0
19-02-2019 11:28:02,1550555882391,3.4410705999999998,7.94075,4.259551999999999,0.27279663,0.15199279999999998,0.08404541,10.62137712,76.1442411,4.51,0
19-02-2019 11:28:02,1550555882431,-2.6114655,4.806732,4.86528,-0.059570312,0.11897278,-0.043792725,10.62137712,76.1442411,4.51,0
19-02-2019 11:28:02,1550555882453,2.9646301,4.471542400000001,11.217102,-0.04890442,-0.010986328,-0.037399292,10.62137712,76.1442411,4.51,0
19-02-2019 11:28:02,1550555882490,0.18495178,3.6168213,17.746094,0.06826782,0.06465149,-0.07788086,10.62137712,76.1442411,4.51,0
19-02-2019 11:28:02,1550555882513,-0.49978638,3.3055725,11.16922,0.54977417,0.004989624000000001,0.03503418,10.62137712,76.1442411,4.51,0
19-02-2019 11:28:02,1550555882552,2.296646,6.501831,7.211608999999999,0.5913086,-0.09513855,-0.039535522000000003,10.62137712,76.1442411,4.51,0
19-02-2019 11:28:02,1550555882573,2.528885,6.2504425,-1.1705017,0.68185425,0.13388062,-0.07362366,10.62137712,76.1442411,4.51,0
19-02-2019 11:28:02,1550555882613,1.1905212,-1.7294311999999998,17.88974,-0.8244171,-0.033355712999999995,-0.25897217,10.62137712,76.1442411,4.51,0
19-02-2019 11:28:02,1550555882633,1.6190796,3.0350342,7.812546,0.37080383,0.065704346,-0.0043792725,10.62137712,76.1442411,4.51,0
19-02-2019 11:28:02,1550555882673,2.4091644,6.4443665,15.447662,0.0022277832,0.056121826,0.08616638,10.62137712,76.1442411,4.51,0
19-02-2019 11:28:02,1550555882696,1.2336121000000002,6.2312927,16.0103,0.8395233,0.07635498,-0.15777588,10.62137712,76.1442411,4.51,0
19-02-2019 11:28:02,1550555882733,-0.2531891,-0.99201965,10.788544,-0.035064697,0.124298096,-0.03526306,10.62137712,76.1442411,4.51,0
19-02-2019 11:28:02,1550555882754,-0.94750977,9.094757000000001,-0.5168762,0.2536316,0.10832214,0.2129364,10.62137712,76.1442411,4.51,0
19-02-2019 11:28:02,1550555882796,0.7475891,-2.969635,16.469986,-1.0523833999999999,-0.0014038085999999999,-0.20890808,10.62137712,76.1442411,4.51,0
19-02-2019 11:28:02,1550555882815,1.4323273,8.836182,-1.7570801,0.41979979999999995,0.11151123,-0.10343933,10.62137712,76.1442411,4.51,0
19-02-2019 11:28:02,1550555882853,0.5009918,11.060394,4.4822083,-0.27368164,0.10511780000000001,-0.17481995,10.62137712,76.1442411,4.51,0
19-02-2019 11:28:02,1550555882875,1.6382294,-1.2075042999999999,15.8403015,-0.52827454,0.06890869,-0.1822815,10.62137712,76.1442411,4.51,0
19-02-2019 11:28:02,1550555882916,1.6885071,-0.2210846,15.51709,-0.20018005,0.09339905,-0.21955872,10.62137712,76.1442411,4.51,0
19-02-2019 11:28:02,1550555882935,0.94392395,5.7524414,9.847626,0.20994568,0.12004089,-0.24938965,10.62137712,76.1442411,4.51,0
19-02-2019 11:28:02,1550555882974,1.0348969000000001,4.2057953,10.960922,-0.035064697,0.042266846,-0.26643372,10.62137712,76.1442411,4.51,0
19-02-2019 11:28:02,1550555882996,0.060455322,3.9951019999999997,6.785431,0.08424377400000001,0.08062744,-0.2419281,10.62137712,76.1442411,4.51,0
19-02-2019 11:28:03,1550555883034,0.055664062,5.8003235,2.1574402000000004,0.24191284,0.014572143999999999,-0.24725342,10.62137712,76.1442411,4.51,0
19-02-2019 11:28:03,1550555883056,0.63027954,5.692596400000001,7.482147,-0.02760315,-0.00033569336000000005,-0.23341370000000003,10.62137712,76.1442411,4.51,0
19-02-2019 11:28:03,1550555883095,-0.9259491,4.9456024,7.6066437,-0.022277832,0.015640259,-0.30265808,10.62137712,76.1442411,4.51,0
19-02-2019 11:28:03,1550555883117,0.5967560000000001,3.4947205,8.408707000000001,-0.17887878,-0.11325073,-0.27815247,10.62137712,76.1442411,4.51,0
19-02-2019 11:28:03,1550555883155,1.5137329,7.485855,8.437439,0.15988159,-0.07597351,-0.1822815,10.62137712,76.1442411,4.51,0
19-02-2019 11:28:03,1550555883178,0.34057617,1.8570862000000001,11.99762,-0.038253784,-0.08129883,-0.17907715,10.62137712,76.1442411,4.51,0
19-02-2019 11:28:03,1550555883218,0.09158325,7.327835,5.954651,0.37187195,-0.06958008,-0.1439209,10.62137712,76.1442411,4.51,0
19-02-2019 11:28:03,1550555883238,-0.6769562,1.7277985,20.916016,-0.07980347,-0.12284851,-0.15991211,10.62137712,76.1442411,4.51,0
19-02-2019 11:28:03,1550555883277,-0.15501404,6.731674000000001,5.995346,0.79904175,-0.098342896,-0.06402588,10.62137712,76.1442411,4.51,0
19-02-2019 11:28:03,1550555883298,-0.023345947000000002,7.234451299999999,6.208435,0.037368774,-0.13243103,-0.03314209,10.62137712,76.1442411,4.51,0
19-02-2019 11:28:03,1550555883337,0.29748535,5.4388123,7.407928500000001,0.01499939,-0.1537323,-0.11515808,10.62137712,76.1442411,4.51,0
19-02-2019 11:28:03,1550555883359,0.6326752,5.762023999999999,7.089492999999999,-0.12561035,-0.14094543,-0.061904907,10.62137712,76.1442411,4.51,0
19-02-2019 11:28:03,1550555883398,0.46507263,6.7939300000000005,3.4503174,0.12260437,-0.15054321,-0.051254272000000003,10.62137712,76.1442411,4.51,0
19-02-2019 11:28:03,1550555883419,0.20889282,3.6862487999999995,9.160477,-0.19165039,-0.13456726,-0.05444336,10.62137712,76.1442411,4.51,0
19-02-2019 11:28:03,1550555883462,0.83618164,6.327057,7.4510193,0.041641235,-0.14521789999999998,0.033966064,10.62137712,76.1442411,4.51,0
19-02-2019 11:28:03,1550555883483,-0.42317200000000005,5.1371307,8.245894999999999,-0.016952515,-0.10580444,0.03929138,10.62137712,76.1442411,4.51,0
19-02-2019 11:28:03,1550555883518,-0.5883789,3.9448242,9.505249000000001,-0.23852539,-0.13456726,-0.043792725,10.62137712,76.1442411,4.51,0
19-02-2019 11:28:03,1550555883540,0.7811127,4.916869999999999,10.333649000000001,-0.12135315,-0.18675232,-0.03314209,10.62137712,76.1442411,4.51,0
19-02-2019 11:28:03,1550555883579,0.92715454,6.003845,7.137389999999999,-0.026535034,-0.12710571,0.04675293,10.62137712,76.1442411,4.51,0
19-02-2019 11:28:03,1550555883600,0.15382385,3.501892,8.959366000000001,-0.1927185,-0.107925415,0.05633545,10.62137712,76.1442411,4.51,0
19-02-2019 11:28:03,1550555883639,0.5560608,2.730957,12.169998,-0.23640442,-0.11645508,0.07551575,10.62137712,76.1442411,4.51,0
19-02-2019 11:28:03,1550555883661,-0.19812012,5.651886,6.790222,0.10128784,-0.13029480000000002,0.08616638,10.62137712,76.1442411,4.51,0
19-02-2019 11:28:03,1550555883702,1.1953125,4.9072876,5.7822569999999995,-0.061691284000000006,-0.14521789999999998,0.055282593,10.62137712,76.1442411,4.51,0
19-02-2019 11:28:03,1550555883730,-0.030517577999999997,3.4324646,12.452515,-0.20336914,-0.088760376,0.01159668,10.62181306,76.14433092,5.5,0
19-02-2019 11:28:03,1550555883762,1.0731964,4.646332,12.083801,0.060806274,-0.11218262,0.110672,10.62181306,76.14433092,5.5,0
19-02-2019 11:28:03,1550555883816,1.0660247999999999,5.115585299999999,7.4270782,0.12579346,-0.053604125999999995,0.0872345,10.62181306,76.14433092,5.5,0
19-02-2019 11:28:03,1550555883822,-0.20768738,4.390152,7.333709700000001,0.08744812,-0.037628174,-0.018218994,10.62181306,76.14433092,5.5,0
19-02-2019 11:28:03,1550555883856,-0.07362366,6.30072,5.6338196,0.022460938,-0.09727478,0.04888916,10.62181306,76.14433092,5.5,0
19-02-2019 11:28:03,1550555883882,0.26875305,5.864975,3.555664,0.018203735,-0.065322876,0.040359497,10.62181306,76.14433092,5.5,0
19-02-2019 11:28:03,1550555883905,0.88645935,4.327896,10.846008,-0.18952942,-0.088760376,0.022247314,10.62181306,76.14433092,5.5,0
19-02-2019 11:28:03,1550555883942,0.61112976,4.6104126,10.237869,0.039505005,-0.056793212999999995,0.021194458,10.62181306,76.14433092,5.5,0
19-02-2019 11:28:03,1550555883967,1.0085601999999998,6.597595,7.795791599999999,0.16307068,-0.049331665,0.02545166,10.62181306,76.14433092,5.5,0
19-02-2019 11:28:04,1550555884004,0.95588684,5.027008,9.433425999999999,-0.07766724,-0.047210693,0.019058228,10.62181306,76.14433092,5.5,0
19-02-2019 11:28:04,1550555884026,0.33338928,4.366211,8.988097999999999,0.117263794,-0.01524353,0.038238525,10.62181306,76.14433092,5.5,0
19-02-2019 11:28:04,1550555884066,0.23522949,4.5984344,10.944168,-0.07234192,-0.025909424,0.040359497,10.62181306,76.14433092,5.5,0
19-02-2019 11:28:04,1550555884085,0.7356262,2.8267365,11.269775,0.08424377400000001,-0.006729125999999999,0.054214477999999997,10.62181306,76.14433092,5.5,0
19-02-2019 11:28:04,1550555884123,0.8313904000000001,5.2329099999999995,7.460602000000001,0.17266846,-0.025909424,-0.040603638,10.62181306,76.14433092,5.5,0
19-02-2019 11:28:04,1550555884146,0.7811127,4.4667664,7.372009299999999,-0.0393219,-0.009918213,-0.0075683593999999995,10.62181306,76.14433092,5.5,0
19-02-2019 11:28:04,1550555884184,0.44352722,4.354233,13.197113,-0.19485474,-0.009918213,0.009475708000000001,10.62181306,76.14433092,5.5,0
19-02-2019 11:28:04,1550555884205,0.63027954,4.9527893,8.181258999999999,-0.056365967,-0.034423828,0.031845093,10.62181306,76.14433092,5.5,0
19-02-2019 11:28:04,1550555884244,-0.15980529999999998,3.205017,9.732697,-0.13839722,-0.003540039,-0.09599304,10.62181306,76.14433092,5.5,0
19-02-2019 11:28:04,1550555884268,0.5560608,5.4388123,11.604965,0.05441284,-0.04295349,-0.057647705,10.62181306,76.14433092,5.5,0
19-02-2019 11:28:04,1550555884305,0.7140808000000001,3.8682098,11.535538,0.074661255,-0.049331665,-0.040603638,10.62181306,76.14433092,5.5,0
19-02-2019 11:28:04,1550555884329,0.23283386,5.7045593,5.262726,0.36227417,-0.045074462999999995,-0.040603638,10.62181306,76.14433092,5.5,0
19-02-2019 11:28:04,1550555884365,0.78829956,4.646332,6.565170299999999,0.07040405,-0.072769165,0.01159668,10.62181306,76.14433092,5.5,0
19-02-2019 11:28:04,1550555884387,1.2862854,7.200943,7.151748700000001,0.018203735,-0.016311646000000003,0.009475708000000001,10.62181306,76.14433092,5.5,0
19-02-2019 11:28:04,1550555884426,-0.27233887,7.284729,0.4192505,0.1918335,-0.035491943,-0.03100586,10.62181306,76.14433092,5.5,0
19-02-2019 11:28:04,1550555884451,1.5424652,3.8227233999999997,7.8293,-0.35144043,-0.053604125999999995,0.044631958,10.62181306,76.14433092,5.5,0
19-02-2019 11:28:04,1550555884488,0.6661835,5.3095245,7.917892500000001,-0.021209717000000003,0.026290894,0.10960388,10.62181306,76.14433092,5.5,0
19-02-2019 11:28:04,1550555884508,-0.07839966,5.5513306,13.4844055,-0.058502197,0.012451172,0.0914917,10.62181306,76.14433092,5.5,0
19-02-2019 11:28:04,1550555884549,0.26396179999999997,3.267273,11.794098,-0.11175537,-0.025909424,0.07337952,10.62181306,76.14433092,5.5,0
19-02-2019 11:28:04,1550555884571,1.046875,5.805114700000001,11.700728999999999,0.08956909,-0.041885376,0.07872009,10.62181306,76.14433092,5.5,0
19-02-2019 11:28:04,1550555884607,0.2855072,7.574432400000001,8.293777,0.18118286,0.004989624000000001,-0.00970459,10.62181306,76.14433092,5.5,0
19-02-2019 11:28:04,1550555884628,0.61590576,2.5250702,8.7438965,-0.01802063,0.003921509,0.0020141601999999997,10.62181306,76.14433092,5.5,0
19-02-2019 11:28:04,1550555884668,1.8632965,2.4484557999999996,7.31456,0.011810303000000001,-0.024841309,0.02545166,10.62181306,76.14433092,5.5,0
19-02-2019 11:28:04,1550555884689,-0.26515198,5.2712097,12.615311,0.034179688,0.065704346,-0.0065002440000000005,10.62181306,76.14433092,5.5,0
19-02-2019 11:28:04,1550555884729,0.70928955,7.885681,1.8078918000000002,0.34843445,-0.010986328,-0.029937744,10.62181306,76.14433092,5.5,0
19-02-2019 11:28:04,1550555884749,0.9582825,2.7644806,8.025635000000001,-0.09259033,-0.007797241,-0.037399292,10.62181306,76.14433092,5.5,0
19-02-2019 11:28:04,1550555884788,1.2862854,-1.2721405000000001,14.715027,-0.50590515,-0.021636963,-0.09599304,10.62181306,76.14433092,5.5,0
19-02-2019 11:28:04,1550555884813,0.3501587,7.3014984,4.4702454000000005,0.27812195,0.028427123999999998,-0.02355957,10.62181306,76.14433092,5.5,0
19-02-2019 11:28:04,1550555884850,1.2599486999999998,3.3726044,9.52919,-0.5091095,-0.0834198,-0.23127747,10.62181306,76.14433092,5.5,0
19-02-2019 11:28:04,1550555884870,1.319809,1.2034607,15.442870999999998,-0.120285034,-0.034423828,-0.33354187,10.62181306,76.14433092,5.5,0
19-02-2019 11:28:04,1550555884908,1.2599486999999998,4.8713837,11.614532,0.22805786,-0.15266418,-0.26004028,10.62181306,76.14433092,5.5,0
19-02-2019 11:28:04,1550555884933,0.6278838999999999,4.2848053,14.149994,0.4304657,-0.098342896,-0.21104431,10.62181306,76.14433092,5.5,0
19-02-2019 11:28:04,1550555884969,-0.26515198,-0.44374084,20.463516000000002,-0.11389160000000002,-0.1494751,-0.11090088,10.62181306,76.14433092,5.5,0
19-02-2019 11:28:04,1550555884992,0.13227844,7.239242599999999,7.4893339999999995,0.64564514,-0.21018982,-0.013961791999999999,10.62181306,76.14433092,5.5,0
19-02-2019 11:28:05,1550555885034,-0.91877747,7.193756,6.5412292,0.33564758,-0.13349915,0.0680542,10.62181306,76.14433092,5.5,0
19-02-2019 11:28:05,1550555885054,-1.0791779,2.5346375,8.837264999999999,0.22912598,-0.29541016,0.05101013,10.62181306,76.14433092,5.5,0
19-02-2019 11:28:05,1550555885091,1.2862854,3.3175507000000004,7.891556,0.2344513,-0.2549286,0.13517761,10.62181306,76.14433092,5.5,0
19-02-2019 11:28:05,1550555885114,0.6949158000000001,5.6207733,3.8477477999999996,0.46667479999999995,-0.17077637,0.20761108,10.62181306,76.14433092,5.5,0
19-02-2019 11:28:05,1550555885156,-0.24121094,3.319931,5.7056427,-0.14372253,-0.16119385,0.25128174,10.62181306,76.14433092,5.5,0
19-02-2019 11:28:05,1550555885172,0.96307373,7.1027830000000005,12.861922999999999,-0.1373291,-0.14201355,0.3343811,10.62181306,76.14433092,5.5,0
19-02-2019 11:28:05,1550555885214,-0.38008118,4.988693,7.7718506,-0.056365967,-0.06851196,0.41639709999999996,10.62181306,76.14433092,5.5,0
19-02-2019 11:28:05,1550555885237,-0.11671448,8.182556,4.7192383,-0.31416320000000003,-0.12496948,0.41000366,10.62181306,76.14433092,5.5,0
19-02-2019 11:28:05,1550555885273,1.2695312,2.6615295,14.841919,-0.6103058000000001,-0.13882446,0.24276733,10.62181306,76.14433092,5.5,0
19-02-2019 11:28:05,1550555885295,1.2312163999999999,4.074112,7.2570953,0.05229187,-0.046142578,0.2960205,10.62181306,76.14433092,5.5,0
19-02-2019 11:28:05,1550555885334,0.457901,2.5609741,13.379059,-0.28114320000000004,-0.012054443,0.30773926,10.62181306,76.14433092,5.5,0
19-02-2019 11:28:05,1550555885356,0.30227659999999995,0.87306213,12.505188,0.22059631,-0.04827881,0.24488829999999998,10.62181306,76.14433092,5.5,0
19-02-2019 11:28:05,1550555885393,1.4706421,5.809906,5.7008667,0.44430542,-0.009918213,0.26620483,10.62181306,76.14433092,5.5,0
19-02-2019 11:28:05,1550555885418,-0.47344970000000003,5.220932,10.977675999999999,0.26000977,-0.0014038085999999999,0.21186829,10.62181306,76.14433092,5.5,0
19-02-2019 11:28:05,1550555885453,1.8249817,0.78208923,12.979233,-0.22468567,-0.01524353,0.26087952,10.62181306,76.14433092,5.5,0
19-02-2019 11:28:05,1550555885478,0.98461914,5.9463805999999995,10.412643,0.086380005,0.053985596,0.14901733,10.62181306,76.14433092,5.5,0
19-02-2019 11:28:05,1550555885514,0.26635742,6.1786194000000005,4.886825599999999,0.20675659,0.06037903,0.15966797,10.62181306,76.14433092,5.5,0
19-02-2019 11:28:05,1550555885536,-0.42556763,3.181076,13.553848,0.023529052999999998,0.040145874,0.21080017,10.62181306,76.14433092,5.5,0
19-02-2019 11:28:05,1550555885575,0.9391326999999999,3.2241668999999997,11.899445,0.13858032,0.047607422,0.21932983,10.62181306,76.14433092,5.5,0
19-02-2019 11:28:05,1550555885602,1.5161285,4.560135,6.857253999999999,0.2589569,0.06677246,0.20121765,10.62181306,76.14433092,5.5,0
19-02-2019 11:28:05,1550555885635,0.82899475,3.0589752,11.006409,-0.036132812,0.13815308,0.19482422,10.62181306,76.14433092,5.5,0
19-02-2019 11:28:05,1550555885661,1.3700867,6.5305634,6.074356,0.23124695,0.1477356,0.15008545,10.62181306,76.14433092,5.5,0
19-02-2019 11:28:05,1550555885699,0.6973114,3.2624817000000004,7.9250793,-0.16716003,0.21058655,0.24169922,10.62181306,76.14433092,5.5,0
19-02-2019 11:28:05,1550555885719,0.61590576,6.465912,4.7335970000000005,0.01927185,0.14347839999999998,0.22572327,10.62181306,76.14433092,5.5,0
19-02-2019 11:28:05,1550555885760,0.14665222,1.6870880000000001,9.323288,-0.44198608,0.22763062,0.14476013,10.62181306,76.14433092,5.5,0
19-02-2019 11:28:05,1550555885785,0.89842224,7.004608,8.38237,0.001159668,0.17224121,0.12025452,10.62181306,76.14433092,5.5,0
19-02-2019 11:28:05,1550555885818,0.53689575,3.1714935,15.232178,-0.44837952,0.2734375,0.10002136,10.62181306,76.14433092,5.5,0
19-02-2019 11:28:05,1550555885838,1.4347229,4.2512817,9.407089,0.02671814,0.1477356,-0.01928711,10.62181306,76.14433092,5.5,0
19-02-2019 11:28:05,1550555885877,1.0827788999999999,5.9703217,13.151610999999999,0.03843689,0.28089905,0.0062713623,10.62181306,76.14433092,5.5,0
19-02-2019 11:28:05,1550555885902,0.23762512,4.023834,9.340042,0.15029907,0.20419312,-0.08106995,10.62181306,76.14433092,5.5,0
19-02-2019 11:28:05,1550555885938,1.8417358,4.2057953,7.383987400000001,0.17053223,0.16052246,-0.13647461,10.62181306,76.14433092,5.5,0
19-02-2019 11:28:05,1550555885960,1.1210938,4.370987,9.143723,0.041641235,0.21165466,-0.16416931,10.62181306,76.14433092,5.5,0
19-02-2019 11:28:05,1550555885999,1.1282653999999999,5.079681400000001,4.7599335,0.26000977,0.15625,-0.22276306,10.62181306,76.14433092,5.5,0
19-02-2019 11:28:06,1550555886019,1.3652954,7.138686999999999,0.7041626,-0.019088745,0.18928528,-0.19718933,10.62181306,76.14433092,5.5,0
19-02-2019 11:28:06,1550555886059,0.89842224,4.5433807,9.644119,-0.36209106,0.16903687,-0.2419281,10.62181306,76.14433092,5.5,0
19-02-2019 11:28:06,1550555886084,0.9798279000000001,3.8993377999999996,2.9882355,-0.20124817,0.14347839999999998,-0.23660278,10.62181306,76.14433092,5.5,0
19-02-2019 11:28:06,1550555886120,1.822586,5.007843,8.693619,-0.28326416,0.11897278,-0.18867493,10.62181306,76.14433092,5.5,0
19-02-2019 11:28:06,1550555886140,0.12510681,4.1722717000000005,11.686371000000001,-0.11282349,0.19354248,-0.14179993,10.62181306,76.14433092,5.5,0
19-02-2019 11:28:06,1550555886182,0.6278838999999999,5.2185364000000005,8.758255,-0.02973938,0.087020874,-0.18440247,10.62181306,76.14433092,5.5,0
19-02-2019 11:28:06,1550555886202,0.99180603,6.667038000000001,6.237167400000001,-0.25770570000000004,0.100860596,-0.17695618,10.62181306,76.14433092,5.5,0
19-02-2019 11:28:06,1550555886239,0.24241638,6.33902,-9.231781,-0.025482177999999998,0.098739624,-0.06402588,10.62181306,76.14433092,5.5,0
19-02-2019 11:28:06,1550555886266,2.1242522999999998,-1.1715851000000002,6.2012480000000005,-0.8936615,0.100860596,0.021194458,10.62181306,76.14433092,5.5,0
19-02-2019 11:28:06,1550555886300,0.6039429000000001,6.667038000000001,31.151229999999998,-0.5037842,0.20100403,-0.19400024,10.62181306,76.14433092,5.5,0
19-02-2019 11:28:06,1550555886325,-5.4294434,-4.5378264999999995,41.815002,0.17160034,0.067840576,-0.18547058,10.62181306,76.14433092,5.5,0
19-02-2019 11:28:06,1550555886360,3.7930144999999995,-3.2952422999999995,34.47917,0.65309143,-0.13243103,0.057403564000000004,10.62181306,76.14433092,5.5,0
19-02-2019 11:28:06,1550555886384,4.7123870000000005,9.927933,4.4439087,1.4701538,0.34907532,0.157547,10.62181306,76.14433092,5.5,0
19-02-2019 11:28:06,1550555886422,-5.474945,8.845749,-7.2421875,1.0334014999999999,0.48542786,-0.33035278,10.62181306,76.14433092,5.5,0
19-02-2019 11:28:06,1550555886443,0.39564514,1.7637023999999997,8.478133999999999,0.059753417999999996,-0.08981323,-0.34632874,10.62181306,76.14433092,5.5,0
19-02-2019 11:28:06,1550555886482,2.6725311,-4.8227386,6.725586,0.44644165,0.023101807000000002,-0.18014526,10.62181306,76.14433092,5.5,0
19-02-2019 11:28:06,1550555886503,4.0803223,8.072433,1.9228058000000001,0.6903838999999999,0.1477356,-0.41557312,10.62181306,76.14433092,5.5,0
19-02-2019 11:28:06,1550555886542,0.55366516,23.45996,-15.954697,2.0198364,-0.00033569336000000005,-0.5892029000000001,10.62181306,76.14433092,5.5,0
19-02-2019 11:28:06,1550555886568,0.86968994,2.8746185,24.636597000000002,0.18971252,0.009246826,-0.59880066,10.62181306,76.14433092,5.5,0
19-02-2019 11:28:06,1550555886602,-1.4885864,-10.293488,34.12004,-0.8404083000000001,-0.030166626000000002,-0.32928467,10.62181306,76.14433092,5.5,0
19-02-2019 11:28:06,1550555886625,3.146576,14.836044000000001,-4.670822,0.47520447,-0.23043823,-0.37295532,10.62181306,76.14433092,5.5,0
19-02-2019 11:28:06,1550555886666,3.1489716,8.6853485,-7.687515299999999,0.10661316,0.10192871,-0.31970215,10.62181306,76.14433092,5.5,0
19-02-2019 11:28:06,1550555886684,0.18255615,4.7923737,9.201187,-1.2984619,0.22763062,-0.21316528,10.62181306,76.14433092,5.5,0
19-02-2019 11:28:06,1550555886723,-1.2731171000000001,-2.6631775,24.327744,-0.9543915000000001,-0.12496948,-0.5061188,10.62181306,76.14433092,5.5,0
19-02-2019 11:28:06,1550555886749,1.1905212,10.768295,5.5691833,0.46134949999999997,-0.09941101,-0.5178375,10.62181306,76.14433092,5.5,0
19-02-2019 11:28:06,1550555886785,1.2455902,6.303116,9.275406,-0.22680664,-0.13775635,-0.320755,10.62181306,76.14433092,5.5,0
19-02-2019 11:28:06,1550555886809,-0.60513306,5.4292297,-1.2375336000000001,0.0032806396000000003,-0.13456726,-0.32928467,10.62181306,76.14433092,5.5,0
19-02-2019 11:28:06,1550555886845,-1.201294,10.868851,-4.3380279999999996,0.14602661,-0.24641418,-0.46563720000000003,10.62181306,76.14433092,5.5,0
19-02-2019 11:28:06,1550555886871,-4.170105,3.21698,12.028732000000002,-0.708313,-0.41152954,-0.38787842,10.62181306,76.14433092,5.5,0
19-02-2019 11:28:06,1550555886904,3.3165739999999997,-2.0358886999999997,12.232239,-0.45903015,-0.5734558000000001,-0.43687440000000005,10.62181306,76.14433092,5.5,0
19-02-2019 11:28:06,1550555886926,0.7811127,4.404510500000001,9.232315,0.02885437,-0.32098390000000004,-0.3388672,10.62181306,76.14433092,5.5,0
19-02-2019 11:28:06,1550555886965,1.7507629,10.679718,4.491791,0.4112854,-0.38916016,-0.07148743,10.62181306,76.14433092,5.5,0
19-02-2019 11:28:06,1550555886987,-0.51893616,5.6063995,22.345352,-0.10003662,-0.2986145,-0.027816772000000003,10.62181306,76.14433092,5.5,0
19-02-2019 11:28:07,1550555887025,-0.3321991,-1.6049347,15.392593,-0.169281,-0.33377075,0.4089508,10.62181306,76.14433092,5.5,0
19-02-2019 11:28:07,1550555887052,0.15382385,11.639786,-4.20874,0.2578888,-0.40299988,0.48884583,10.62181306,76.14433092,5.5,0
19-02-2019 11:28:07,1550555887085,1.537674,-0.46051025,23.662155,-1.0406647,-0.33056640000000004,0.6635437,10.62181306,76.14433092,5.5,0
19-02-2019 11:28:07,1550555887107,-3.6290129999999996,8.934341,-9.389786,0.26747129999999997,-0.06851196,0.6496887,10.62181306,76.14433092,5.5,0
19-02-2019 11:28:07,1550555887150,6.2470703,5.7021637,-2.7985535,-0.3226776,-0.5201874,1.4646149,10.62181306,76.14433092,5.5,-1
19-02-2019 11:28:07,1550555887168,-0.26275635,8.127502,0.62275696,-0.108566284,0.23295593,1.0939178,10.62181306,76.14433092,5.5,0
19-02-2019 11:28:07,1550555887206,-3.4614105000000004,5.6614685,3.4550934,-0.35571290000000005,0.027359009,0.024383545,10.62181306,76.14433092,5.5,0
19-02-2019 11:28:07,1550555887230,4.5759277,1.4955597,12.253784,-0.30563354,0.09979248,0.6624755999999999,10.62181306,76.14433092,5.5,0
19-02-2019 11:28:07,1550555887267,1.0420837,7.157837,12.849945,0.07359314,0.1477356,0.2587433,10.62181306,76.14433092,5.5,0
19-02-2019 11:28:07,1550555887288,-1.4742278999999998,-3.5610046000000004,15.045425,0.65522766,0.14880371,0.15647888,10.62181306,76.14433092,5.5,0
19-02-2019 11:28:07,1550555887328,4.877594,2.5514069,16.283234,0.062942505,0.16477966,0.55807495,10.62181306,76.14433092,5.5,0
19-02-2019 11:28:07,1550555887349,1.9446868999999998,9.281494,9.328078999999999,1.171875,0.4076538,0.12771606,10.62181306,76.14433092,5.5,0
19-02-2019 11:28:07,1550555887388,-3.3105773999999997,-7.137939500000001,20.04692,-1.13974,0.36824036,-0.13433838,10.62181306,76.14433092,5.5,0
19-02-2019 11:28:07,1550555887415,3.7666779000000004,14.072296,-0.7084198,0.27919006,0.015640259,-0.18867493,10.62181306,76.14433092,5.5,0
19-02-2019 11:28:07,1550555887449,-0.502182,2.6687164,14.844315,-1.0278931,0.2691803,-0.4379425,10.62181306,76.14433092,5.5,0
19-02-2019 11:28:07,1550555887471,1.9207458,10.830551,-0.13619995,0.07572937,0.07423401,-0.5764313,10.62181306,76.14433092,5.5,0
19-02-2019 11:28:07,1550555887508,2.17453,2.3167725,16.558563,-0.8148346,0.12322998,-0.47521973,10.62181306,76.14433092,5.5,0
19-02-2019 11:28:07,1550555887536,1.50177,6.923217999999999,5.3489075,0.24935913,0.14347839999999998,-0.42941284,10.62181306,76.14433092,5.5,0
19-02-2019 11:28:07,1550555887569,1.1043243,0.96165466,12.842758,-0.41535950000000005,0.10832214,-0.44219970000000003,10.62181306,76.14433092,5.5,0
19-02-2019 11:28:07,1550555887591,1.3796692,7.023772999999999,1.7959136999999998,0.44537354,0.07316589,-0.57536316,10.62181306,76.14433092,5.5,0
19-02-2019 11:28:07,1550555887635,-0.044891357,2.5897064,11.442153999999999,-0.37701416,0.08595276,-0.3580475,10.62181306,76.14433092,5.5,0
19-02-2019 11:28:07,1550555887653,0.20889282,5.8146973,14.324782999999998,0.3324585,-0.031234741,-0.32928467,10.62181306,76.14433092,5.5,0
19-02-2019 11:28:07,1550555887690,1.2431946000000003,7.1434784,11.841994999999999,0.34736633,-0.04295349,-0.24085999,10.62181306,76.14433092,5.5,0
19-02-2019 11:28:07,1550555887711,0.8529358,-0.28811646,22.426758,0.2429657,0.07102966,-0.22381592,10.62181306,76.14433092,5.5,0
19-02-2019 11:28:07,1550555887750,1.7076721000000001,10.935898,-1.5439911,1.4051818999999999,-0.030166626000000002,-0.114105225,10.62181306,76.14433092,5.5,0
19-02-2019 11:28:07,1550555887772,-0.90200806,5.1945953000000005,13.501175,0.40382385,0.06037903,-0.34951782,10.62181306,76.14433092,5.5,0
19-02-2019 11:28:07,1550555887814,0.8529358,8.3932495,3.3689117,0.49543762,-0.065322876,-0.09811401,10.62181306,76.14433092,5.5,0
19-02-2019 11:28:07,1550555887832,1.9614563000000003,1.1076965,14.324782999999998,-0.44837952,-0.05039978,-0.14924622,10.62181306,76.14433092,5.5,0
19-02-2019 11:28:07,1550555887871,1.585556,12.195236,-9.724976,1.0547028,-0.02909851,-0.14819336,10.62181306,76.14433092,5.5,0
19-02-2019 11:28:07,1550555887895,0.09397888,3.4492187999999993,26.702804999999998,-0.7424010999999999,0.12536621,-0.114105225,10.62181306,76.14433092,5.5,0
19-02-2019 11:28:07,1550555887932,1.0157471,5.675827,11.928177,0.2578888,-0.045074462999999995,-0.022491455,10.62181306,76.14433092,5.5,0
19-02-2019 11:28:07,1550555887953,5.4210815000000006,2.6615295,10.922623,-0.12986755,0.07102966,-0.002243042,10.62181306,76.14433092,5.5,0
19-02-2019 11:28:07,1550555887992,-2.221222,5.31192,28.71872,-0.33972168,0.23402405,-0.18972778,10.62181306,76.14433092,5.5,0
19-02-2019 11:28:08,1550555888015,-0.61231995,6.805892999999999,9.469330000000001,0.31114197,-0.023773192999999998,-0.34632874,10.62181306,76.14433092,5.5,0
19-02-2019 11:28:08,1550555888052,0.2232666,10.308608999999999,7.1349945,0.44111633,-0.023773192999999998,-0.42729187,10.62181306,76.14433092,5.5,0
19-02-2019 11:28:08,1550555888075,0.27593994,2.4508362,12.986419999999999,-0.47502136,-0.039749146,-0.4336853,10.62181306,76.14433092,5.5,0
19-02-2019 11:28:08,1550555888114,-0.052078247,7.4690857,3.7807160000000004,0.7148895000000001,-0.07916260000000001,-0.36763,10.62181306,76.14433092,5.5,0
19-02-2019 11:28:08,1550555888136,0.61351013,11.445862,-0.18408203,0.08212280000000001,-0.14308167,-0.42089844,10.62181306,76.14433092,5.5,0
19-02-2019 11:28:08,1550555888174,-3.5787354,12.719574,-14.218903,0.54338074,-0.11538696,-0.5668335,10.62181306,76.14433092,5.5,0
19-02-2019 11:28:08,1550555888195,3.5631714,-1.7749176,18.14592,-1.3421478,-0.42218018,-0.47628784,10.62181306,76.14433092,5.5,0
19-02-2019 11:28:08,1550555888233,2.8784332000000004,12.001311999999999,7.6976320000000005,1.0131530999999998,-0.21232605,-0.2696228,10.62181306,76.14433092,5.5,0
19-02-2019 11:28:08,1550555888256,-0.030517577999999997,4.924057,3.1893463,-0.18525696,-0.031234741,-0.15031433,10.62181306,76.14433092,5.5,0
19-02-2019 11:28:08,1550555888294,-2.1709442,4.0453796,-4.3835144,-0.26622009999999996,-0.26664734,-0.22488403,10.62181306,76.14433092,5.5,0
19-02-2019 11:28:08,1550555888317,-0.2579651,6.2624054000000005,11.68158,-0.8137665,-0.38383484,-0.07574463,10.62181306,76.14433092,5.5,0
19-02-2019 11:28:08,1550555888355,-4.0934906,8.321425999999999,7.563553,-0.108566284,-0.21978760000000003,-0.10450745,10.62181306,76.14433092,5.5,0
19-02-2019 11:28:08,1550555888376,1.2599486999999998,5.4555664,14.305617999999999,-0.7956543,-0.50953674,0.05847168,10.62181306,76.14433092,5.5,0
19-02-2019 11:28:08,1550555888416,-0.9738312,0.9472809000000001,16.182678,-0.21508789,-0.3497467,0.04675293,10.62181306,76.14433092,5.5,0
19-02-2019 11:28:08,1550555888437,-0.08798218,9.154602,0.18940735,0.04057312,-0.37957764,0.055282593,10.62181306,76.14433092,5.5,0
19-02-2019 11:28:08,1550555888476,-0.65541077,10.737167,10.994446,-0.22680664,-0.25387573,0.44303894,10.62181306,76.14433092,5.5,0
19-02-2019 11:28:08,1550555888503,-0.5859833000000001,-2.8331604,12.885864,0.6658783,-0.3348236,0.43557740000000006,10.62181306,76.14433092,5.5,0
19-02-2019 11:28:08,1550555888537,1.6621703999999997,-4.899353,21.481049,-0.07980347,-0.29328918,0.6113434,10.62181306,76.14433092,5.5,0
19-02-2019 11:28:08,1550555888558,-1.4622498,11.546417,0.6275482,1.6917267,-0.008865356,0.5879059,10.62181306,76.14433092,5.5,0
19-02-2019 11:28:08,1550555888598,-0.2531891,7.0525055,8.652908,-0.22894287,-0.19314575,0.44197083,10.62181306,76.14433092,5.5,0
19-02-2019 11:28:08,1550555888618,0.7906951999999999,-2.325592,14.492370999999999,-0.010559082,-0.053604125999999995,0.4920349,10.62181306,76.14433092,5.5,0
19-02-2019 11:28:08,1550555888658,2.2942505,7.0525055,7.453415,0.660553,0.019897461,0.57832336,10.62181306,76.14433092,5.5,0
19-02-2019 11:28:08,1550555888681,-1.5077515,6.57605,14.11409,0.39317322,0.10725403,0.5207977,10.62181306,76.14433092,5.5,0
19-02-2019 11:28:08,1550555888736,3.0388488999999996,5.477112,5.341736,0.2813263,0.091278076,0.5793915,10.62205853,76.14444353,5.4,0
19-02-2019 11:28:08,1550555888750,1.0157471,8.43634,8.463776,-0.6678314000000001,0.24681091,0.42066956,10.62205853,76.14444353,5.4,0
19-02-2019 11:28:08,1550555888782,0.0053863525,7.076446499999999,11.439758,-0.14479065,0.26171875,0.10853577,10.62205853,76.14444353,5.4,0
19-02-2019 11:28:08,1550555888827,2.0644073,6.334244,6.3688507,-0.13839722,0.30433655,0.06593323,10.62205853,76.14444353,5.4,0
19-02-2019 11:28:08,1550555888838,2.7371673999999997,5.481903,9.505249000000001,-0.10110474,0.32350159999999994,-0.13327026,10.62205853,76.14444353,5.4,0
19-02-2019 11:28:08,1550555888870,0.043701172,7.2871246,8.162094,0.15455627,0.36717224,-0.34739685,10.62205853,76.14444353,5.4,0
19-02-2019 11:28:08,1550555888899,1.8034363000000002,7.3302307,-3.105011,0.26428223,0.1796875,-0.55085754,10.62205853,76.14444353,5.4,0
19-02-2019 11:28:08,1550555888921,2.004547,5.572876,9.512436,-0.4302826,0.14241028,-0.72875977,10.62205853,76.14444353,5.4,0
19-02-2019 11:28:08,1550555888959,1.2264403999999998,6.652664,2.8374023,0.08744812,0.07209778,-0.70106506,10.62205853,76.14444353,5.4,0
19-02-2019 11:28:08,1550555888983,1.0109558,5.287979,9.754242,-0.41110230000000003,0.04121399,-0.80651855,10.62205853,76.14444353,5.4,0
19-02-2019 11:28:09,1550555889021,1.0277100000000001,6.3294525,9.730300999999999,-0.05529785,-0.09513855,-0.717041,10.62205853,76.14444353,5.4,0
